t_ms,ax,ay,az,gx,gy,gz,temp_c,pressure_kpa,proximity,light
0,-2.390,-8.620,1848.320,-2.270,12.570,-0.600,0.000,0.000,0.000,0.000
6000,-765.670,-14.840,-3.830,-2.240,10.890,-0.410,0.000,0.000,0.000,0.000
12000,-580.830,-14.840,1933.080,-1.750,6.940,-0.720,0.000,0.000,0.000,0.000
18000,-12.930,-24.420,1910.090,-2.240,9.220,-0.440,0.000,0.000,0.000,0.000
24000,-11.970,-21.070,1904.350,-2.610,-12.330,-0.700,0.000,0.000,0.000,0.000
30000,-634.460,-19.150,-4.310,-2.470,9.700,-0.730,0.000,0.000,0.000,0.000
36000,-6.700,nan,nan,nan,nan,nan,nan,nan,nan,nan
78000,0.000,0.000,0.000,0.000,0.000,0.000,21.300,100.960,8.000,138.000
84000,0.000,0.000,0.000,0.000,0.000,0.000,21.200,100.960,6.000,134.000
90000,0.000,0.000,0.000,0.000,0.000,0.000,21.100,100.960,8.000,137.000
96000,0.000,0.000,0.000,0.000,0.000,0.000,21.100,100.960,7.000,139.000
102000,0.000,0.000,0.000,0.000,0.000,0.000,21.000,100.960,14.000,4.000
108000,0.000,0.000,0.000,0.000,0.000,0.000,21.000,100.960,17.000,11.000
114000,0.000,0.000,0.000,0.000,0.000,0.000,21.000,100.950,19.000,12.000
120000,-1062.550,-4.790,-0.960,-6.030,-18.320,0.350,nan,nan,nan,nan
126000,-1180.820,-10.060,-0.960,-3.020,11.010,-0.400,nan,nan,nan,nan
132000,-9.580,-1493.980,-7.180,-2.900,6.580,-0.290,20.900,100.970,7.000,28.000
138000,-0.960,-1493.020,-7.660,-1.910,11.250,-0.410,20.900,100.960,8.000,27.000
144000,-1159.750,-11.010,-3.830,-2.730,8.620,-0.600,20.900,100.960,9.000,27.000
150000,nan,nan,nan,nan,nan,nan,20.900,100.960,nan,nan
168000,-1.440,-4.310,-3.830,-2.240,10.530,-0.780,20.800,100.960,8.000,27.000
174000,-1088.880,-15.320,586.100,-1.880,-12.210,-0.660,20.800,100.960,6.000,26.000
180000,-1.920,-7.180,-9.580,-2.580,7.540,-0.610,20.700,100.960,9.000,25.000
186000,-12.450,nan,nan,nan,nan,nan,nan,nan,nan,nan
1446000,-4.310,-7.180,-201.590,-3.310,9.220,-0.720,20.800,100.970,11.000,16.000
1452000,-122.100,-11.010,-14.370,-3.620,12.210,-0.670,20.900,100.980,11.000,16.000
1458000,-5.750,1945.050,-8.140,-2.980,9.460,-0.380,20.800,100.980,30.000,3.000
1464000,-10.530,-11.490,-5.750,-3.020,12.690,-0.730,20.800,100.970,9.000,16.000
1470000,-142.220,-11.490,-206.860,-3.010,11.370,-0.580,20.800,100.970,9.000,16.000
1476000,-8.620,1937.870,-13.890,-3.280,11.010,-0.720,20.800,100.970,10.000,16.000
1482000,-13.410,-2.390,-211.650,-2.840,11.250,-0.530,20.800,100.970,10.000,17.000
1488000,-117.790,-6.220,-6.220,-3.230,8.500,-0.580,20.800,100.970,11.000,17.000
1494000,-116.840,-14.370,-207.820,-3.200,13.410,-0.520,20.800,100.970,9.000,24.000
1500000,-9.100,-15.320,-199.680,-2.960,13.770,-0.780,20.800,100.970,9.000,23.000
1506000,-6.220,-13.410,-207.820,-2.900,10.770,-0.820,20.700,100.980,9.000,24.000
1512000,-118.750,1942.660,-2.390,-2.500,10.530,-0.600,20.700,100.980,8.000,24.000
1518000,-115.400,1941.700,-10.530,-3.140,10.410,-0.790,20.700,100.970,nan,15.000
1524000,-120.190,1938.350,-4.790,-2.940,9.220,-0.370,20.700,100.970,22.000,22.000
1530000,-108.220,-4.310,-213.560,-2.980,11.130,-0.600,20.600,100.970,9.000,22.000
1536000,-1.920,1937.390,-11.490,-2.980,13.170,-0.560,20.600,100.970,9.000,22.000
1542000,-1.440,-13.410,-3.830,-3.050,13.770,-0.630,20.600,100.970,8.000,24.000
1548000,-3.830,-10.060,-6.220,-3.270,10.410,-0.560,20.600,100.970,9.000,22.000
1554000,-7.660,1935.950,-5.270,-2.880,11.370,-0.670,20.500,100.970,8.000,21.000
1560000,-114.920,-6.220,-1.440,-2.820,10.180,-0.700,20.500,100.970,8.000,23.000
1566000,-1.920,1843.540,-49.800,-1.280,494.040,-0.950,20.500,100.970,nan,24.000
1572000,-17.240,1973.300,-152.750,-7.810,-8.260,-0.020,20.500,100.970,7.000,25.000
1578000,-12.930,-12.450,-4.310,-2.990,12.210,-0.730,20.500,100.970,8.000,16.000
1584000,-117.320,-2.870,-14.840,-3.190,13.290,-0.430,20.500,100.970,7.000,20.000
1590000,-121.150,-3.350,-146.530,-2.900,11.010,-0.490,20.500,100.970,10.000,17.000
1596000,-115.880,-8.140,-8.620,-2.500,13.050,-0.460,20.500,100.980,9.000,18.000
1602000,-112.530,-9.580,-150.360,-2.700,10.890,-0.630,20.500,100.980,7.000,18.000
1608000,-112.530,-4.790,-2.870,-2.620,11.970,-0.520,20.500,100.980,10.000,91.000
1614000,-113.960,-13.890,-14.370,-2.580,11.370,-0.580,20.400,100.970,9.000,18.000
1620000,-14.370,-12.930,-5.750,-2.490,12.450,-0.690,20.400,100.970,8.000,18.000
1626000,-116.840,-7.660,-171.900,-2.940,10.770,-0.690,20.400,100.970,7.000,14.000
1632000,-113.490,-11.010,-150.830,-2.620,11.130,-0.520,20.400,100.970,8.000,21.000
1638000,-119.230,-14.840,-139.820,-2.590,12.210,-0.670,20.400,100.970,8.000,22.000
1644000,-107.740,-2.390,-149.400,-2.980,11.490,-0.440,20.400,100.980,9.000,18.000
1650000,-113.490,-11.010,-8.620,-2.960,11.250,-0.500,20.400,100.970,7.000,17.000
1656000,-115.400,-8.620,-11.970,-2.900,11.730,-0.460,20.400,100.970,8.000,22.000
1662000,-10.060,1938.350,-152.270,-2.370,13.530,-0.890,20.300,100.970,8.000,18.000
1668000,-115.880,-2.390,-148.920,-2.790,12.090,-0.530,20.300,100.970,7.000,24.000
1674000,-112.530,1944.570,-14.370,-2.440,11.970,-0.760,20.300,100.970,7.000,68.000
1680000,-10.530,-15.320,-13.410,-2.720,13.770,-0.320,20.300,100.970,7.000,20.000
1686000,-113.010,1938.350,-15.320,-2.790,10.650,-0.560,20.300,100.970,10.000,20.000
1692000,-12.930,1940.260,-11.970,-1.860,11.730,-0.380,20.300,100.980,8.000,20.000
1698000,-111.570,-14.840,-7.660,-2.660,12.450,-0.700,20.200,100.970,7.000,20.000
1704000,-114.920,-6.220,-153.230,-2.590,12.090,-0.610,20.200,100.970,6.000,24.000
1710000,-107.740,1940.740,-152.270,-2.550,8.860,-0.460,20.200,100.970,8.000,23.000
1716000,-1.920,-11.010,-144.610,-2.900,10.180,-0.550,20.200,100.980,16.000,14.000
1722000,-112.050,-4.310,-7.180,-2.900,9.940,-0.470,20.200,100.970,nan,17.000
1728000,-9.580,-12.930,-152.270,-2.810,-12.090,-0.930,20.200,100.970,9.000,17.000
1734000,-115.880,-3.350,-141.260,-2.590,14.370,-0.630,20.200,100.980,nan,16.000
1740000,-1.440,-8.620,-5.750,-2.030,14.840,-0.470,20.200,100.970,55.000,16.000
1746000,-118.750,1943.130,-143.650,-3.110,10.770,-0.400,20.200,100.970,10.000,14.000
1752000,-11.490,-3.830,-12.930,-2.500,12.690,-0.690,20.200,100.970,9.000,19.000
1758000,-13.890,-12.450,-7.660,-2.820,13.530,-0.370,20.100,100.970,nan,4.000
1764000,1536.600,-110.130,-5.270,-1.310,286.350,-1.600,20.200,100.970,12.000,16.000
1770000,-9.100,-117.320,-1070.690,-7.430,-265.760,-1.530,20.100,100.970,9.000,16.000
1776000,-13.890,157.060,-1069.730,-0.930,260.010,-1.360,20.100,100.970,9.000,19.000
1782000,-13.890,-82.360,-8.620,78.580,-450.230,-53.300,20.100,100.980,nan,5.000
1788000,-11.970,1937.390,-214.040,-0.460,-12.690,-0.370,20.100,100.970,23.000,5.000
1794000,-15.320,1942.660,-6.700,-2.840,11.850,-0.640,20.100,100.980,17.000,5.000
1800000,-1.440,-15.320,-245.170,-2.330,12.810,-0.670,20.100,100.970,12.000,4.000
1806000,-14.840,1942.180,-239.420,-2.460,11.610,-0.700,20.100,100.970,16.000,7.000
1812000,-107.740,-10.530,-15.320,-2.290,10.770,-0.460,20.200,100.980,14.000,6.000
1818000,-5.750,1944.570,-9.100,-2.410,12.810,-0.700,20.100,100.980,16.000,5.000
1824000,-11.490,1936.430,-268.150,-2.460,14.130,-0.780,20.100,100.970,19.000,3.000
1830000,-115.400,-3.350,-9.580,-1.860,12.690,-0.350,20.100,100.970,23.000,5.000
1836000,-111.090,1936.910,-239.420,-2.720,12.450,-0.490,20.100,100.980,24.000,5.000
1842000,-116.840,1936.430,-243.250,-2.270,9.460,-0.550,20.100,100.970,22.000,5.000
1848000,-7.660,1945.050,-240.380,-2.470,14.010,-0.610,20.100,100.970,18.000,7.000
1854000,-1.920,1944.090,-5.750,-2.040,8.260,-0.460,20.100,100.970,17.000,15.000
1860000,-10.530,1938.350,-5.270,-2.430,12.690,-0.530,20.100,100.980,18.000,15.000
1866000,-12.450,-2.390,-239.420,-2.300,10.180,-0.380,20.100,100.970,17.000,15.000
1872000,-11.970,1934.520,-244.690,-2.460,11.970,-0.950,20.100,100.980,17.000,16.000
1878000,-109.650,1933.080,-234.150,-2.620,13.170,-0.720,20.000,100.970,18.000,16.000
1884000,-11.970,-9.100,-3.350,-2.640,13.650,-0.310,20.000,100.970,17.000,16.000
1890000,-108.220,1945.050,-9.580,-2.470,12.330,-0.810,20.000,100.970,18.000,16.000
1896000,-9.580,1941.220,-241.340,-2.210,13.770,-0.640,20.000,100.970,19.000,16.000
1902000,-115.400,-3.830,-241.340,-2.460,12.810,-0.690,19.900,100.970,18.000,16.000
1908000,-14.840,-8.620,-237.500,-2.500,14.130,-0.660,19.900,100.970,15.000,16.000
1914000,-9.100,1937.870,-237.500,-2.620,14.600,-0.700,19.900,100.970,17.000,16.000
1920000,-110.130,-8.620,-242.770,-2.440,11.370,-0.890,19.900,100.970,nan,nan
1926000,-1.920,1940.740,-7.660,-2.550,12.930,-0.500,19.900,100.980,19.000,16.000
1932000,-111.570,1942.660,-10.060,-2.660,11.730,-0.580,19.800,100.970,nan,nan
1938000,-10.530,1944.090,-245.170,-2.610,12.090,-0.240,19.800,100.970,19.000,16.000
1944000,-14.370,1933.080,-6.700,-2.170,12.330,-0.660,19.800,100.970,nan,nan
1950000,-11.490,1936.910,-4.310,-2.350,10.530,-0.630,19.800,100.970,18.000,16.000
1956000,-111.090,1932.600,-3.350,-2.400,11.370,-0.610,nan,100.980,nan,nan
1962000,-11.010,1937.870,-10.060,-2.080,11.130,-0.580,19.800,100.970,18.000,16.000
1968000,-2.870,1933.080,-13.890,-2.670,10.300,-0.660,19.700,100.980,17.000,16.000
1974000,-89.540,1943.130,-235.110,-2.470,9.700,-0.560,19.700,100.930,nan,16.000
1980000,-10.530,1945.530,-234.150,-2.300,14.720,-0.580,19.700,100.980,16.000,16.000
1986000,-107.740,1942.660,-14.370,-2.150,11.010,-0.530,19.600,100.960,nan,16.000
1992000,-112.530,1942.180,-4.790,-2.200,13.410,-0.870,19.600,100.970,17.000,16.000
1998000,-114.440,1935.950,-242.290,-2.500,11.610,-0.640,19.600,100.970,18.000,16.000
2004000,-109.180,1938.350,-238.460,-2.370,14.010,-0.780,19.600,100.970,nan,16.000
2010000,-6.700,1931.640,-0.480,-2.290,11.850,-0.640,19.600,100.970,17.000,16.000
2016000,-8.620,-15.320,-230.320,-2.290,13.770,-0.690,19.600,100.970,17.000,16.000
2022000,-116.360,1943.130,-242.770,-2.080,10.180,-0.720,19.600,100.970,19.000,16.000
2028000,-9.100,-11.970,-13.410,-2.490,10.650,-0.120,19.600,100.970,18.000,15.000
2034000,-10.530,-6.700,-233.670,-2.580,13.290,-0.660,19.600,100.970,18.000,16.000
2040000,-6.700,1935.470,-243.730,-2.530,14.250,-0.640,19.600,100.980,19.000,16.000
2046000,-110.610,1945.530,-235.110,-2.440,12.930,-0.490,19.600,100.970,16.000,15.000
2052000,-6.220,1941.220,-237.030,-2.620,13.410,-0.440,19.600,100.970,19.000,16.000
2058000,-7.660,1943.610,-4.790,-2.350,12.450,-0.670,19.600,100.960,18.000,16.000
2064000,-110.130,1945.050,-233.670,-2.180,11.850,-0.520,19.600,100.960,18.000,16.000
2070000,-91.940,1936.910,-235.110,-2.730,10.650,-0.530,19.600,100.970,17.000,16.000
2076000,-107.740,-11.970,-237.500,-2.290,14.010,-0.820,19.600,100.970,18.000,16.000
2082000,-4.790,1934.520,-233.670,-2.040,13.050,-0.640,19.500,100.970,18.000,16.000
2088000,-114.440,1937.870,-2.390,-2.170,12.810,-0.410,19.600,100.970,16.000,16.000
2094000,-91.940,1932.120,-238.460,-2.490,11.490,-0.760,19.500,100.960,18.000,16.000
2100000,-109.650,-13.890,-233.670,-2.200,13.410,-0.560,19.600,100.970,19.000,12.000
2106000,-11.490,1942.660,-245.170,-2.090,12.090,-0.640,19.600,100.960,nan,13.000
2112000,-13.890,1945.530,-236.070,-2.580,12.930,-0.560,19.600,100.970,18.000,12.000
2118000,-12.450,1944.570,-238.460,-2.720,14.250,-0.790,19.600,100.960,19.000,12.000
2124000,-11.010,1936.430,-9.100,-2.670,9.820,-0.730,19.500,100.960,18.000,12.000
2130000,-12.930,1942.660,-239.420,-2.470,9.940,-0.470,nan,nan,nan,nan
2136000,-8.620,1940.260,-0.480,-2.270,11.250,-0.730,19.700,100.970,19.000,12.000
2142000,-4.310,1937.390,-13.410,-2.210,10.530,-0.660,19.700,100.970,19.000,12.000
2148000,-11.010,-11.970,-243.250,-2.530,-13.170,-0.530,19.700,100.970,20.000,11.000
2154000,-1.440,-10.530,-0.960,-2.580,12.810,-0.340,19.800,100.970,19.000,12.000
2160000,-1.440,1942.180,-10.530,-2.290,13.050,-0.580,19.800,100.960,17.000,12.000
2166000,-15.320,1931.640,-3.830,-2.300,11.730,-0.410,19.800,100.970,18.000,12.000
2172000,-9.580,1942.660,-236.550,-2.290,11.250,-0.560,19.800,100.970,17.000,14.000
2178000,-1.920,1940.260,-10.530,-2.180,12.090,-0.490,19.800,100.960,20.000,13.000
2184000,-1.440,-11.970,-11.010,-2.270,12.570,-0.560,19.800,100.970,18.000,12.000
2190000,-113.010,-11.970,-234.150,-2.470,-15.080,-0.850,19.600,100.960,18.000,11.000
2196000,-6.700,1938.820,-5.270,-2.530,12.570,-0.600,19.800,100.960,nan,nan
2202000,-107.740,-13.410,-1.440,-2.470,10.650,-0.550,19.800,100.960,20.000,16.000
2208000,-11.010,-14.840,-237.980,-2.290,12.930,-0.490,19.800,100.960,18.000,10.000
2214000,-88.590,-13.890,-231.760,-2.290,-11.850,-0.580,19.800,100.960,14.000,16.000
2220000,-115.880,1961.330,-149.400,-3.230,7.900,-0.560,19.800,100.970,17.000,10.000
2226000,-119.230,-3.350,-13.410,-2.090,12.810,-0.750,nan,nan,nan,nan
3168000,44.530,-4.310,-5.750,-2.460,14.480,-0.550,nan,nan,nan,nan
3174000,40.700,1944.570,403.660,-2.900,8.500,-0.750,19.400,100.990,255.000,0.000
3180000,-1.440,1940.260,-14.370,-2.530,12.210,-0.430,19.400,100.990,255.000,0.000
3186000,43.100,1933.080,409.410,-2.520,11.130,-0.430,19.400,100.980,255.000,0.000
3192000,43.570,1945.050,-9.580,-2.440,14.010,-0.490,19.400,100.980,255.000,0.000
3198000,41.660,1932.600,404.620,-2.230,13.890,-0.520,19.400,100.980,255.000,0.000
3204000,44.050,1942.660,-6.220,-2.370,10.180,-0.270,19.400,100.980,255.000,0.000
3210000,35.910,-3.830,399.350,-2.430,11.970,-0.560,19.400,100.980,255.000,0.000
3216000,38.310,1935.470,407.490,-1.860,12.930,-0.500,19.400,100.980,255.000,0.000
3222000,-11.010,-15.320,412.760,-2.440,11.730,-0.030,19.400,100.980,255.000,0.000
3228000,42.140,1941.700,-14.840,-2.460,12.090,-0.810,19.400,100.980,255.000,0.000
3234000,35.910,-15.320,403.180,-2.460,13.170,-0.870,19.400,100.980,255.000,0.000
3240000,39.260,1940.260,-0.960,-2.230,12.450,-0.440,19.400,100.980,255.000,0.000
3246000,40.220,1943.610,412.280,-2.580,12.810,-0.320,19.400,100.980,255.000,0.000
3252000,44.050,1941.220,-15.320,-2.350,13.770,-0.380,19.400,100.990,255.000,0.000
3258000,33.040,1945.050,-11.970,-2.120,9.580,-0.820,19.400,100.980,255.000,0.000
3264000,-11.010,1939.300,406.540,-2.500,14.480,-0.890,19.400,100.980,255.000,0.000
3270000,39.740,1932.600,-14.840,-2.410,10.530,-0.230,19.400,100.980,255.000,0.000
3276000,33.040,-11.010,405.100,-2.440,11.370,-0.660,19.400,100.980,255.000,0.000
3282000,nan,nan,nan,nan,nan,nan,19.400,100.980,nan,0.000
3288000,43.570,1942.660,-3.350,-2.330,11.610,-0.750,19.400,100.990,255.000,0.000
3294000,45.490,1932.600,401.270,-2.060,13.290,-0.380,19.400,100.990,255.000,0.000
3300000,-12.450,1933.080,413.240,-2.530,10.890,-0.550,19.400,100.990,255.000,0.000
3306000,34.960,1934.040,-13.410,-2.670,15.080,-0.580,19.400,100.990,255.000,0.000
3312000,35.910,-13.890,-11.490,-2.440,-14.720,-0.630,19.400,100.990,255.000,0.000
3318000,40.700,1931.640,-8.620,-2.380,13.050,-0.900,19.400,100.980,255.000,0.000
3324000,33.040,1933.560,408.450,-2.270,9.460,-0.780,19.400,100.990,255.000,0.000
3330000,-0.480,1933.080,-4.310,-2.370,14.010,-0.660,19.400,100.980,255.000,0.000
3336000,36.870,1938.820,-15.320,-2.400,13.290,-0.520,19.400,100.980,255.000,0.000
3342000,43.100,1945.530,-8.620,-2.210,-15.200,-0.720,19.400,100.980,255.000,0.000
3348000,-9.580,1931.160,408.930,-2.470,14.250,-0.810,19.400,100.990,255.000,0.000
3354000,45.010,1940.740,-1.920,-2.330,11.370,-0.520,19.400,100.990,255.000,0.000
3360000,40.700,1932.600,410.850,-0.930,13.410,-0.600,19.400,100.990,255.000,0.000
3366000,38.790,1944.090,412.760,-2.790,7.780,-0.490,19.400,100.980,255.000,0.000
3372000,45.010,1936.910,402.700,-1.910,11.490,-0.820,19.400,100.980,255.000,0.000
3378000,-1.920,-2.870,409.410,-2.150,-15.080,-0.340,19.400,100.990,255.000,0.000
3384000,36.390,-10.530,405.100,-2.370,13.410,-0.500,19.400,100.990,255.000,0.000
3390000,37.350,1931.640,400.790,-2.470,-15.080,-0.810,19.400,100.980,255.000,0.000
3396000,32.560,1942.180,430.480,-2.110,12.090,-0.340,19.400,100.990,255.000,0.000
3402000,31.600,1933.080,410.850,-2.440,13.650,-0.630,19.400,100.990,255.000,0.000
3408000,34.000,-6.700,401.270,-2.370,-14.720,-0.790,19.400,100.990,255.000,0.000
3414000,-15.320,1932.600,-0.480,-2.210,-14.600,-0.430,19.400,100.980,255.000,0.000
3420000,39.260,1930.680,411.800,-2.120,13.290,-0.730,19.400,100.990,255.000,0.000
3426000,39.740,1935.470,-11.970,-2.430,13.530,-0.550,19.400,100.990,255.000,0.000
3432000,43.100,1943.130,412.760,-2.410,12.930,-0.400,19.400,100.980,255.000,0.000
3438000,-11.970,nan,nan,nan,nan,nan,19.400,100.980,255.000,0.000
3444000,44.050,1938.350,400.790,-2.210,14.720,-0.520,19.400,100.990,255.000,0.000
3450000,44.050,-14.370,-4.310,-2.320,11.370,-0.670,19.400,100.990,255.000,0.000
3474000,37.830,1933.560,-7.660,-2.640,12.570,-0.700,19.400,100.990,255.000,0.000
3480000,43.100,1938.350,412.280,-2.660,-15.320,-0.640,19.400,100.990,255.000,0.000
3486000,38.310,-6.220,411.800,-3.050,12.330,-0.780,19.400,100.990,255.000,0.000
3492000,41.660,1938.820,-4.310,-2.260,12.690,-0.530,19.400,100.990,255.000,0.000
3498000,37.350,1934.520,399.830,-2.200,13.530,-0.580,19.400,100.990,255.000,0.000
3504000,32.080,1936.430,-1.920,-2.110,15.200,-0.490,19.400,100.990,255.000,0.000
3510000,-12.930,1935.950,-4.310,-2.170,12.930,-0.630,19.400,100.990,255.000,0.000
3516000,36.870,1937.390,-6.220,-2.150,12.570,-0.560,19.400,100.990,255.000,0.000
3522000,-3.350,1936.430,405.580,-2.350,11.610,-0.610,19.400,100.990,255.000,0.000
3528000,-13.410,1938.350,410.370,-2.470,10.060,-0.310,19.400,100.990,255.000,0.000
3534000,39.740,1937.870,-13.410,-2.010,12.330,-0.790,19.400,100.990,255.000,0.000
3540000,45.010,-3.350,401.270,-2.090,11.010,-0.400,19.400,100.990,255.000,0.000
3546000,-11.970,-11.970,403.180,-3.450,8.500,-0.640,19.400,100.990,255.000,0.000
3552000,31.120,-9.580,-1.440,-3.010,9.220,-0.610,19.400,100.990,255.000,0.000
3558000,34.960,1933.560,-14.840,-2.080,12.570,-0.790,19.400,100.990,255.000,0.000
3564000,-5.270,-4.310,408.930,-2.290,12.570,-0.750,19.400,100.990,255.000,0.000
3570000,38.790,-1.920,-14.840,-3.630,32.920,-0.560,19.400,100.990,255.000,0.000
3576000,37.350,1939.780,-5.270,-2.090,12.090,-0.720,19.400,100.990,255.000,0.000
3582000,38.790,-12.930,-1.440,-2.590,11.850,-0.920,19.400,100.990,255.000,0.000
3588000,39.260,-4.310,404.620,-2.610,13.290,-0.310,19.400,100.990,255.000,0.000
3594000,-14.370,-0.960,406.540,-2.290,12.570,-0.370,19.400,101.000,255.000,0.000
3600000,-6.220,-4.790,408.930,-2.670,11.730,-0.120,19.400,100.990,255.000,0.000
3606000,-1.440,-5.270,400.310,-2.470,12.930,-0.790,19.400,100.990,255.000,0.000
3612000,-11.490,1939.300,404.140,-2.120,14.840,-0.500,19.400,100.990,255.000,0.000
3618000,43.570,1938.820,-12.450,-2.580,12.570,-0.690,19.400,100.990,255.000,0.000
3624000,35.910,1934.990,-7.660,-2.380,13.170,-0.790,19.400,100.990,255.000,0.000
3630000,-11.490,1943.130,-15.320,-2.150,10.180,-0.380,19.400,100.990,255.000,0.000
3636000,36.870,1933.560,413.240,-2.490,11.370,-0.580,19.400,100.990,255.000,0.000
3642000,-12.450,1939.780,-12.930,-2.720,11.490,-0.580,19.400,100.980,255.000,0.000
3648000,33.520,-4.310,-11.490,-2.490,12.690,-0.610,19.400,100.990,255.000,0.000
3654000,-14.370,1938.350,408.930,-2.270,10.300,-0.840,19.400,100.980,255.000,0.000
3660000,32.080,1932.120,412.280,-2.490,12.090,-0.470,19.400,100.980,255.000,0.000
3666000,35.910,1936.430,-13.410,-2.300,11.490,-0.440,19.400,100.990,255.000,0.000
3672000,36.390,1942.180,413.240,-2.350,14.250,-0.520,19.400,100.990,255.000,0.000
3678000,45.490,1940.260,-4.310,-2.410,12.450,-0.900,19.400,100.990,255.000,0.000
3684000,35.430,1944.090,-8.620,-2.320,14.960,-0.470,19.400,100.990,255.000,0.000
3690000,44.050,-1.440,408.450,-2.370,9.100,-0.400,19.400,100.980,255.000,0.000
3696000,-11.010,1937.390,410.370,-2.900,11.610,-0.560,19.400,100.980,255.000,0.000
3702000,-8.140,1935.470,-8.140,-2.330,11.370,-0.690,19.400,100.980,255.000,0.000
3708000,36.390,1940.740,411.800,-2.330,12.690,-0.340,19.400,100.990,255.000,0.000
3714000,38.790,1938.350,-11.010,-2.270,11.970,-0.760,19.400,100.990,255.000,0.000
3720000,44.050,1931.160,410.370,-2.110,15.200,-0.990,19.400,100.980,255.000,0.000
3726000,36.390,1940.740,400.310,-2.470,12.090,-0.750,19.400,100.980,255.000,0.000
3732000,-8.140,1934.520,402.700,-2.580,12.570,-0.660,19.400,100.980,255.000,0.000
3738000,36.870,-13.890,407.010,-2.780,12.210,-0.600,19.400,100.980,255.000,0.000
3744000,42.620,-8.140,409.410,-2.240,12.450,-0.460,19.400,100.980,255.000,0.000
3750000,41.180,-11.970,407.970,-2.470,12.450,-0.640,19.400,100.980,255.000,0.000
3756000,-14.840,-9.580,401.750,-2.620,-15.200,-0.780,19.400,100.980,255.000,0.000
3762000,-13.890,1937.870,413.240,-2.430,14.010,-0.270,19.400,100.980,255.000,0.000
3768000,35.910,1937.870,406.060,-2.460,12.930,-0.600,19.400,100.980,255.000,0.000
3774000,42.620,1945.050,402.230,-2.300,12.570,-0.760,19.400,100.970,255.000,0.000
3780000,44.050,-14.840,-14.370,-2.460,11.730,-0.720,19.400,100.980,255.000,0.000
3786000,-8.620,-12.450,412.280,-2.580,13.770,-0.850,19.400,100.980,255.000,0.000
3792000,-10.530,1937.870,-10.060,-2.870,12.570,-0.380,19.400,100.980,255.000,0.000
3798000,42.620,1944.570,412.280,-2.350,9.100,-0.120,19.400,100.970,255.000,0.000
3804000,-15.320,1939.780,-5.270,-2.320,14.600,-0.760,19.400,100.980,255.000,0.000
3810000,43.570,1936.910,-6.220,-2.440,9.100,-0.400,19.400,100.980,255.000,0.000
3816000,42.620,1938.820,-2.870,-1.400,9.100,-0.340,19.500,100.970,255.000,0.000
3822000,39.740,1942.180,407.970,-2.520,-14.130,-0.920,19.500,100.970,255.000,0.000
3828000,37.830,-10.530,398.400,-2.460,14.010,-0.850,19.600,100.980,255.000,0.000
3834000,37.350,1935.950,412.760,-2.660,14.370,-0.780,19.600,100.980,255.000,0.000
3840000,38.310,1992.930,406.060,-0.640,13.650,-0.820,19.600,100.970,255.000,0.000
3846000,-6.220,1943.610,400.790,-2.530,13.050,-0.440,19.700,100.970,255.000,0.000
3852000,35.910,1937.390,-1.920,-1.690,11.850,-0.790,19.700,100.980,255.000,0.000
3858000,31.600,1932.120,412.280,-2.290,13.050,-0.730,19.700,100.970,255.000,0.000
3864000,-1.920,-0.480,400.310,-2.590,10.410,-0.790,19.800,100.970,nan,0.000
3870000,39.740,1944.570,-3.830,-2.320,11.730,-0.690,19.800,100.970,255.000,0.000
3876000,31.120,1932.120,412.280,-2.410,12.330,-0.610,19.900,100.980,255.000,0.000
3882000,31.600,1938.350,-4.310,-2.330,13.290,-0.470,19.900,100.980,255.000,0.000
3888000,32.080,1935.950,-3.350,-2.410,12.210,-0.580,20.000,100.980,255.000,0.000
3894000,38.310,1937.390,398.400,-2.440,11.610,-0.580,20.000,100.970,255.000,0.000
3900000,-13.410,1942.660,402.700,-2.880,12.930,-0.550,20.000,100.970,255.000,0.000
3906000,32.560,-13.890,407.010,-2.690,12.210,-0.750,20.100,100.970,255.000,0.000
3912000,32.080,-14.370,-7.660,-2.240,12.450,-0.430,20.100,100.960,255.000,0.000
3918000,-10.060,1932.120,401.750,-2.290,-14.960,-0.610,20.100,100.970,255.000,0.000
3924000,35.430,1934.990,-12.930,-2.720,12.210,-0.270,20.200,100.980,255.000,0.000
3930000,33.520,-11.010,-7.660,-2.780,13.890,-0.640,20.200,100.970,255.000,0.000
3936000,-13.410,1937.870,400.790,-2.580,14.130,-0.810,20.300,100.970,255.000,0.000
3942000,41.180,1930.680,-9.100,-2.870,12.330,-0.670,20.300,100.960,255.000,0.000
3948000,31.120,1944.570,-5.750,-2.410,12.810,-0.890,20.300,100.970,255.000,0.000
3954000,30.650,-5.750,-2.870,-2.520,11.130,-0.440,20.300,100.970,255.000,0.000
3960000,34.000,1935.470,398.870,-2.410,12.810,-0.580,20.400,100.970,255.000,0.000
3966000,-4.310,-11.970,398.400,-2.460,11.850,-0.500,20.400,100.970,255.000,0.000
3972000,45.490,-1.440,378.760,-1.940,-15.200,-0.600,20.400,100.970,255.000,0.000
3978000,-0.480,1940.740,409.890,-2.850,14.600,-0.750,20.400,100.970,255.000,0.000
3984000,-0.480,1945.050,-3.350,-2.660,14.250,-0.520,20.500,100.970,255.000,0.000
3990000,37.830,-11.970,399.830,-1.950,10.060,-0.810,20.500,100.970,255.000,0.000
3996000,-2.390,1942.660,-12.450,-2.530,12.210,-0.850,20.500,100.970,255.000,0.000
4002000,-14.840,1931.640,405.100,-2.530,11.970,-0.610,20.500,100.960,255.000,0.000
4008000,34.000,1939.300,404.620,-2.470,15.080,-0.630,20.600,100.970,255.000,0.000
4014000,-8.140,1937.390,404.140,-2.170,8.380,-0.730,20.600,100.970,255.000,0.000
4020000,-2.390,1933.080,406.060,-2.460,12.450,-0.380,20.700,100.970,255.000,0.000
4026000,37.350,1931.640,405.100,-1.970,10.180,-0.760,20.700,100.970,255.000,0.000
4032000,35.430,1935.950,398.870,-2.210,12.930,-0.950,20.700,100.970,255.000,0.000
4038000,38.790,1936.430,400.790,-2.530,12.690,-0.630,20.700,100.970,255.000,0.000
4044000,43.570,1937.870,407.970,-2.470,12.450,-0.230,20.800,100.970,255.000,0.000
4050000,39.260,1939.780,402.230,-2.590,9.460,-0.850,20.800,100.970,255.000,0.000
4056000,-15.320,-4.310,402.700,-1.820,-15.080,-0.780,20.800,100.970,255.000,0.000
4062000,34.960,1944.570,402.230,-2.370,14.840,-0.670,20.800,100.970,255.000,0.000
4068000,-4.310,-4.310,-3.350,-2.840,13.410,-0.500,20.800,100.970,255.000,0.000
4518000,7.180,1934.990,-12.930,-2.170,13.050,-0.670,20.400,100.910,nan,nan
4524000,4.790,1931.640,-0.960,-2.550,15.200,-0.580,nan,100.910,255.000,0.000
4530000,-6.220,1903.870,382.590,-0.890,-14.840,-0.470,20.400,100.920,255.000,0.000
4536000,10.060,-6.700,400.310,-2.730,11.010,-0.640,nan,100.920,255.000,0.000
4542000,-3.350,-14.370,398.400,-2.790,9.340,-0.730,20.400,100.920,255.000,0.000
4548000,14.840,1938.820,398.870,-2.210,11.730,-0.270,20.400,100.920,255.000,0.000
4554000,3.830,1930.680,-6.220,-2.370,12.690,-0.720,20.400,100.920,255.000,0.000
4560000,-2.390,-3.830,-9.100,-2.270,9.700,-0.820,nan,100.920,255.000,0.000
4566000,10.060,-3.350,-0.960,-2.580,10.890,-0.700,20.300,100.920,255.000,0.000
4572000,0.000,-13.890,409.410,-2.720,13.890,-0.430,20.300,100.920,255.000,0.000
4578000,-0.480,1961.330,398.400,-2.500,10.060,-0.630,20.300,100.920,255.000,0.000
4584000,0.000,-1.920,378.280,-2.240,14.370,-0.520,20.300,100.920,255.000,0.000
4590000,9.100,-11.010,-1.440,-1.750,3.230,-0.310,nan,100.910,255.000,0.000
4596000,11.970,1943.610,-11.010,-2.550,13.050,-0.920,20.200,100.910,255.000,0.000
4602000,-7.180,1936.910,-11.970,-2.460,14.720,-0.470,20.200,100.910,255.000,0.000
4608000,14.370,1945.530,408.450,-2.580,12.930,-0.400,20.200,100.910,255.000,0.000
4614000,-0.480,1936.430,-0.960,-2.580,8.500,-0.530,20.200,100.920,255.000,0.000
4620000,-11.490,1942.180,-2.390,-2.320,10.060,-0.760,20.200,100.920,255.000,0.000
4626000,6.700,1936.430,402.230,-2.150,9.460,-0.380,20.200,100.910,255.000,0.000
4632000,3.830,1942.180,401.270,-2.810,12.690,-0.520,20.200,100.920,255.000,0.000
4638000,8.140,1937.390,-4.790,-2.520,14.010,-0.630,20.200,100.920,255.000,0.000
4644000,4.310,1935.950,410.370,-2.440,15.080,-0.610,20.100,100.920,255.000,0.000
4650000,-3.350,-0.960,406.540,-2.410,10.650,-0.820,20.100,100.920,255.000,0.000
4656000,6.220,1941.220,-10.530,-2.010,10.890,-0.690,20.100,100.910,255.000,0.000
4662000,-4.790,1935.950,403.180,-2.590,14.480,-0.600,20.100,100.910,255.000,0.000
4668000,9.100,1944.570,-6.700,-2.580,13.170,-0.550,20.100,100.920,255.000,0.000
4674000,-4.790,1939.300,-1.920,-2.500,9.700,-0.850,20.100,100.920,255.000,0.000
4680000,7.180,1937.390,399.350,-2.460,13.050,-0.520,20.100,100.920,255.000,0.000
4686000,11.010,-11.010,-6.700,-2.610,13.890,-0.840,20.100,100.910,255.000,0.000
4692000,14.840,1937.390,-0.960,-2.530,13.650,-0.630,20.000,100.920,255.000,0.000
4698000,13.890,1938.820,-6.700,-1.950,11.010,-0.960,20.000,100.920,255.000,0.000
4704000,1.440,1935.470,398.400,-2.440,12.810,-0.640,20.000,100.910,255.000,0.000
4710000,-1.920,1933.080,-13.890,-2.560,9.940,-0.430,nan,100.910,255.000,0.000
4716000,-8.620,1941.700,400.790,-2.580,10.410,-0.550,20.000,100.920,255.000,0.000
4722000,6.700,-11.010,-13.890,-2.330,11.490,-0.490,20.000,100.920,255.000,0.000
4728000,1.440,-2.390,-11.970,-3.010,13.170,-0.470,20.000,100.920,255.000,0.000
4734000,3.830,-13.890,-5.750,-2.410,-15.320,-0.750,20.000,100.920,255.000,0.000
4740000,3.830,-10.530,-10.530,-2.460,11.130,-0.520,20.000,100.920,255.000,0.000
4746000,5.750,1940.740,402.230,-2.520,11.490,-0.610,20.000,100.910,255.000,0.000
4752000,4.310,1932.120,-2.870,-2.330,11.970,-0.530,nan,100.920,255.000,0.000
4758000,8.140,1943.610,411.800,-2.440,12.810,-0.670,19.900,100.920,255.000,0.000
4764000,7.180,-14.370,406.540,-2.460,12.930,-0.700,nan,100.920,255.000,0.000
4770000,-3.350,1939.780,-10.530,-2.440,11.370,-0.380,19.900,100.920,255.000,0.000
4776000,1.920,1941.700,411.320,-2.400,13.410,-0.640,19.900,100.910,255.000,0.000
4782000,14.370,-2.390,-3.350,-2.380,10.650,-0.870,19.900,100.910,255.000,0.000
4788000,6.220,1938.350,403.180,-2.180,-15.200,-0.640,19.900,100.920,255.000,0.000
4794000,3.350,1939.780,-9.100,-2.610,13.890,-0.820,19.900,100.910,255.000,0.000
4800000,9.580,1931.160,-10.530,-2.500,10.650,-0.640,nan,100.910,255.000,0.000
4806000,8.620,1934.520,-2.390,-2.590,12.090,-0.820,19.900,100.920,255.000,0.000
4812000,-0.960,1944.090,402.230,-2.490,11.730,-0.610,19.900,100.910,255.000,0.000
4818000,11.010,-0.480,-10.530,-2.150,10.410,-0.660,19.900,100.910,255.000,0.000
4824000,5.270,1939.300,-0.480,-2.590,14.130,-0.500,19.800,100.910,255.000,0.000
4830000,-5.750,1941.220,399.830,-2.150,14.130,-0.470,19.900,100.920,255.000,0.000
4836000,14.370,1941.700,400.310,-2.760,10.650,-0.530,19.800,100.920,255.000,0.000
4842000,-3.350,1944.570,401.750,-2.200,12.210,-0.950,19.900,100.910,255.000,0.000
4848000,10.060,1937.390,-0.960,-2.460,12.450,-0.530,nan,100.910,255.000,0.000
4854000,2.870,1945.050,-6.700,-2.550,11.250,-0.410,19.800,100.910,255.000,0.000
4860000,2.870,1934.520,-1.920,-2.320,12.450,-0.630,19.800,100.910,255.000,0.000
4866000,7.660,1941.700,405.100,-2.640,11.010,-0.350,19.800,100.920,255.000,0.000
4872000,-12.450,1930.680,-0.960,-2.300,12.330,-0.630,19.800,100.920,255.000,0.000
4878000,-1.440,1942.660,382.110,-2.490,12.810,-0.440,19.800,100.910,255.000,0.000
4884000,-0.960,-3.830,404.140,-2.520,14.960,-0.840,nan,100.910,255.000,0.000
4890000,3.830,1944.570,409.890,-2.150,9.100,-0.560,19.800,100.910,255.000,0.000
4896000,10.060,-12.930,402.230,-2.560,12.450,-0.780,nan,100.910,255.000,0.000
4902000,7.660,1939.780,380.200,-2.500,10.410,-0.700,19.800,100.910,255.000,0.000
4908000,0.960,1941.700,-14.840,-2.660,12.930,-0.760,nan,100.910,255.000,0.000
4914000,9.100,1939.300,-5.750,-2.500,13.170,-0.440,19.800,100.910,255.000,0.000
4920000,12.930,1942.660,-8.140,-2.370,13.650,-0.260,nan,100.910,255.000,0.000
4926000,1.920,1936.910,-11.970,-2.870,14.840,-0.820,19.800,100.910,255.000,0.000
4932000,3.830,-13.890,-4.310,-2.440,10.770,-0.670,nan,100.910,255.000,0.000
4938000,4.790,1930.680,378.280,-2.370,13.290,-0.780,19.800,100.920,255.000,0.000
4944000,-0.960,1933.080,-5.270,-2.290,13.170,-0.980,19.800,100.910,255.000,0.000
4950000,8.620,-14.840,400.310,-2.700,12.090,-0.600,nan,100.910,255.000,0.000
4956000,11.490,1934.990,-7.660,-2.490,9.100,-0.580,19.700,100.910,255.000,0.000
4962000,5.270,1942.660,398.400,-2.750,-13.530,-0.760,19.800,100.910,255.000,0.000
4968000,14.370,-14.370,408.450,-2.780,12.930,-0.750,19.700,100.910,255.000,0.000
4974000,6.220,1934.040,-6.220,-2.300,11.490,-0.690,19.700,100.910,255.000,0.000
4980000,7.180,1937.870,399.350,-2.580,14.370,-0.850,19.700,100.910,255.000,0.000
4986000,13.890,1944.570,-3.350,-2.440,11.850,-0.320,19.700,100.910,255.000,0.000
4992000,6.700,1934.040,407.010,-2.410,13.050,-0.530,nan,100.910,255.000,0.000
4998000,5.270,1937.390,-8.620,-2.260,11.970,-0.630,19.700,100.910,255.000,0.000
5004000,-0.480,1937.390,399.830,-2.290,12.450,-0.530,nan,100.910,255.000,0.000
5010000,4.310,1936.430,-5.750,-2.380,12.570,-0.440,19.700,nan,255.000,0.000
5016000,1.920,-11.490,-2.390,-2.560,-15.320,-0.660,19.700,100.910,255.000,0.000
5022000,-3.830,1939.780,-2.390,-2.690,14.370,-0.850,19.700,100.920,255.000,0.000
5028000,-4.790,-14.370,-11.010,-2.270,11.010,-0.640,19.700,100.920,255.000,0.000
5034000,1.920,1934.990,407.970,-2.150,-15.080,-0.350,nan,100.920,255.000,0.000
5040000,3.350,1943.610,399.830,-2.520,14.130,-0.730,19.600,100.910,255.000,0.000
5046000,11.490,1933.560,-8.140,-2.610,13.770,-0.530,19.600,100.920,255.000,0.000
5052000,0.480,1940.260,406.540,-2.790,12.450,-0.260,nan,100.920,255.000,0.000
5058000,-8.140,1935.950,-5.270,-2.780,11.850,-0.850,19.700,100.920,255.000,0.000
5064000,-47.880,1939.780,379.240,-2.500,12.330,-0.470,nan,100.920,255.000,0.000
5070000,-48.360,1939.780,373.970,-2.850,12.450,-0.920,19.700,100.910,255.000,0.000
5076000,-13.890,-15.320,377.810,-2.150,12.090,-0.990,19.700,100.910,255.000,0.000
5082000,-15.320,1931.640,-11.970,-2.400,11.130,-0.350,nan,100.910,255.000,0.000
5088000,-11.010,1942.180,-10.060,-2.380,12.210,-0.890,19.700,100.920,255.000,0.000
5094000,-7.660,-14.840,-1.920,-2.370,-13.410,-0.580,19.700,100.920,255.000,0.000
5100000,-4.310,1932.600,-2.390,-2.440,15.200,-0.490,19.700,100.920,255.000,0.000
5106000,-29.210,1942.180,370.140,-2.330,11.850,-0.690,19.700,100.920,255.000,0.000
5112000,-56.980,1945.530,-6.700,-2.470,11.850,-0.470,19.700,100.910,255.000,0.000
5118000,-49.800,-14.370,370.140,-2.590,12.210,-0.720,nan,100.920,255.000,0.000
5124000,-6.220,-15.320,370.620,-2.690,15.200,-0.500,19.700,100.920,255.000,0.000
5130000,-9.100,-15.320,376.850,-2.320,13.050,-0.410,19.700,100.920,255.000,0.000
5136000,-54.110,1932.120,-13.890,-2.640,10.300,-0.530,19.700,100.920,255.000,0.000
5142000,-56.980,1939.300,-3.830,-2.520,11.010,-0.820,19.700,100.920,255.000,0.000
5148000,-13.410,1939.780,-3.350,-2.380,14.010,-0.310,19.700,100.920,255.000,1.000
5154000,-10.060,1939.300,-7.660,-2.090,11.130,-0.730,19.700,100.920,255.000,0.000
5160000,-10.530,-14.370,381.160,-2.440,10.650,-0.720,19.700,100.920,255.000,0.000
5166000,-14.370,1934.520,372.060,-2.120,11.370,-0.430,nan,100.920,255.000,0.000
5172000,-14.840,1941.700,382.110,-2.520,13.890,-0.900,19.700,100.920,255.000,0.000
5178000,-11.490,-2.870,376.850,-2.350,10.770,-0.760,19.700,100.930,255.000,0.000
5184000,-11.010,-14.840,-14.840,-3.080,8.620,-0.610,nan,100.920,255.000,0.000
5190000,-8.620,-13.890,-2.870,-2.610,13.650,-0.670,19.700,100.920,255.000,0.000
5196000,-47.410,1931.640,379.720,-2.460,10.890,-0.640,nan,100.920,255.000,0.000
5202000,-9.580,1934.040,-14.840,-2.610,11.490,-0.600,19.700,100.930,255.000,0.000
5208000,-4.790,-10.530,381.160,-2.180,12.570,-0.750,19.700,100.920,255.000,0.000
5214000,-46.450,1938.350,-11.970,-2.620,11.490,-0.750,nan,100.920,255.000,0.000
5220000,-14.840,1938.350,-14.840,-2.580,9.220,-0.630,19.700,100.920,255.000,0.000
5226000,-11.970,1938.350,371.100,-2.260,13.530,-0.440,19.700,100.920,255.000,0.000
5232000,-12.450,1935.470,377.330,-2.750,14.130,-0.630,19.700,100.930,255.000,0.000
5238000,-47.880,1944.090,-9.580,-2.520,13.170,-0.580,nan,100.920,255.000,0.000
5244000,-6.700,1941.700,369.190,-2.330,13.170,-0.520,19.700,100.920,255.000,0.000
5250000,-8.620,1939.300,373.970,-2.370,13.770,-0.460,19.700,100.930,255.000,0.000
5256000,-2.390,-13.890,-4.310,-2.610,9.580,-0.720,19.600,100.930,255.000,0.000
5262000,-46.930,nan,nan,nan,nan,nan,19.700,nan,255.000,0.000
5268000,-9.580,1942.660,-12.450,-2.590,12.690,-0.550,19.600,100.930,255.000,0.000
5274000,-48.360,1941.220,-3.830,-2.790,14.370,-0.810,nan,100.920,255.000,0.000
5280000,-11.490,1937.870,-12.450,-2.700,8.860,-0.700,19.600,100.930,255.000,0.000
5286000,-7.180,-14.840,-4.790,-2.530,11.970,-0.470,19.600,100.920,255.000,0.000
5292000,-6.700,1942.180,-3.350,-1.790,9.460,-0.700,nan,100.930,255.000,0.000
5298000,-48.840,-14.370,380.680,-2.840,14.960,-0.810,19.600,100.920,255.000,0.000
5304000,-46.450,-3.350,377.810,-2.490,14.010,-0.820,19.600,100.920,255.000,0.000
5310000,nan,nan,nan,nan,nan,nan,19.600,nan,nan,nan
5316000,-7.180,1935.950,-12.450,-2.550,12.090,-0.370,19.600,100.920,255.000,0.000
5322000,-12.450,-6.700,374.930,-2.410,13.890,-0.640,19.600,100.920,255.000,0.000
5328000,-12.450,1931.640,367.750,-2.470,12.690,-0.440,19.600,100.920,255.000,0.000
5334000,-55.550,-2.870,-10.530,-2.110,9.700,-0.690,19.600,100.930,255.000,0.000
5340000,-5.270,1937.390,374.450,-2.270,12.690,-0.260,nan,100.920,255.000,0.000
5346000,-50.280,1945.050,374.930,-2.330,14.010,-0.720,19.600,100.920,255.000,0.000
5352000,-9.580,1940.260,376.370,-2.460,13.050,-0.500,19.600,100.920,255.000,0.000
5358000,-52.190,1939.300,372.540,-2.560,14.840,-0.640,nan,100.910,255.000,0.000
5364000,-7.660,1941.220,-4.310,-2.640,11.250,-0.560,19.600,100.930,255.000,0.000
5370000,-47.410,1935.950,375.410,-2.500,13.530,-0.810,nan,100.920,255.000,0.000
5376000,-13.890,-12.930,379.240,-2.470,11.610,-0.630,19.600,100.920,255.000,0.000
5382000,-48.360,1938.350,380.200,-2.470,11.250,-0.600,nan,100.930,255.000,0.000
5388000,-5.270,1939.300,370.140,-2.400,13.050,-0.490,19.600,100.920,255.000,0.000
5394000,-11.490,-14.370,371.100,-2.320,11.250,-0.470,19.600,100.920,255.000,0.000
5400000,-24.420,1942.180,-5.750,-2.790,12.570,-0.530,19.500,100.920,255.000,0.000
5406000,-53.150,nan,nan,nan,nan,nan,19.500,nan,255.000,0.000
5412000,-8.620,-1.440,369.190,-2.400,12.570,-1.270,19.500,100.920,255.000,0.000
5418000,-7.660,1938.820,378.280,-2.620,10.770,-0.700,19.500,100.920,255.000,0.000
5424000,-9.100,-15.320,377.330,-2.210,12.690,-0.520,nan,100.920,255.000,0.000
5430000,-4.790,-14.370,-11.490,-2.670,14.720,-0.370,19.500,100.920,255.000,0.000
5436000,-48.360,nan,nan,nan,nan,nan,19.500,nan,255.000,0.000
5442000,-9.100,1933.560,376.370,-2.210,12.690,-0.670,19.500,100.920,255.000,0.000
5448000,-11.490,1939.780,376.850,-2.290,12.690,-0.240,nan,100.920,255.000,0.000
5454000,-7.660,-15.320,379.720,-2.690,11.490,-0.380,19.500,100.920,255.000,0.000
5460000,-14.370,-14.840,-15.320,-2.200,13.410,-0.290,19.500,100.920,255.000,0.000
5466000,-10.530,1935.950,-5.750,-2.290,13.170,-0.460,19.500,100.920,255.000,0.000
5472000,-11.970,1934.040,-1.440,-2.640,12.810,-0.490,19.500,100.930,255.000,0.000
5478000,-51.240,1944.090,378.280,-2.610,12.810,-0.810,19.600,100.930,255.000,0.000
5484000,-59.380,1932.600,-15.320,-2.430,10.300,-0.380,nan,100.930,255.000,0.000
5490000,nan,nan,nan,nan,nan,nan,19.500,nan,255.000,0.000
5496000,-12.450,1945.530,375.890,-2.620,12.810,-0.200,19.500,100.930,255.000,0.000
5502000,-47.880,-2.390,380.680,-2.470,7.540,-0.580,19.500,100.920,255.000,0.000
5508000,-12.450,-8.620,379.720,-2.240,12.330,-0.690,19.500,100.930,255.000,0.000
5514000,-49.320,1933.080,-13.410,-2.490,13.290,-0.580,19.600,100.920,255.000,0.000
5520000,-12.450,1939.780,372.060,-2.120,14.370,-0.550,19.600,100.930,255.000,0.000
5526000,-2.870,1936.430,-2.870,-2.620,12.810,-0.460,nan,100.930,255.000,0.000
5532000,-46.930,1933.080,-11.010,-2.870,10.530,-0.560,19.500,100.920,255.000,0.000
5538000,-13.890,1943.610,-2.870,-2.300,12.810,-0.720,19.500,100.930,255.000,0.000
5544000,-57.940,1934.040,374.450,-2.610,10.530,-0.720,19.500,100.930,255.000,0.000
5550000,-22.510,1941.220,-9.100,-2.290,13.530,-0.490,19.600,100.930,255.000,0.000
5556000,-3.830,-10.530,379.240,-2.400,13.290,-0.490,19.500,100.930,255.000,0.000
5562000,-49.800,-13.890,-13.890,-2.400,10.060,-0.720,19.500,100.920,255.000,0.000
5568000,-28.730,1941.220,375.890,-2.040,14.480,-0.640,19.500,100.930,255.000,0.000
5574000,-46.930,1933.560,375.890,-2.470,13.650,-0.380,19.500,100.920,255.000,0.000
5580000,-11.010,1931.640,-5.270,-2.640,13.650,-0.670,19.500,100.930,255.000,0.000
5586000,-51.240,1944.090,378.760,-2.560,13.650,-0.690,19.500,100.920,255.000,0.000
5592000,-9.100,1933.080,380.680,-2.270,11.490,-0.630,19.500,100.930,255.000,0.000
5598000,-9.580,1938.820,379.720,-2.660,11.490,-0.670,19.500,100.930,255.000,0.000
5604000,-15.320,1937.870,-14.840,-2.470,12.210,-0.870,19.500,100.930,255.000,0.000
5610000,-5.270,1936.430,374.930,-2.530,13.410,-0.580,19.500,100.920,255.000,0.000
5616000,-14.840,1938.350,-9.580,-2.350,11.730,-0.560,19.500,100.920,255.000,0.000
5622000,nan,nan,nan,nan,nan,nan,19.500,nan,nan,0.000
6126000,-9.100,1943.610,-7.660,-2.700,9.100,-0.500,nan,nan,nan,nan
6132000,-1.920,-7.660,-0.480,-2.320,14.600,-0.500,19.300,100.930,255.000,0.000
6138000,-4.790,1931.160,382.590,-2.440,14.480,-0.810,19.300,100.930,255.000,0.000
6144000,-7.180,1937.870,-7.180,-2.270,14.600,-0.640,19.300,100.930,255.000,0.000
6150000,-18.200,1943.610,348.120,-2.520,13.050,-0.520,19.400,100.930,255.000,0.000
6156000,-13.890,-11.010,342.370,-2.380,12.330,-0.690,19.300,100.930,255.000,0.000
6162000,-14.370,-9.100,351.950,-2.120,12.690,-0.670,19.400,100.930,255.000,11.000
6168000,-2.390,-14.840,376.850,-2.410,11.490,-0.720,19.400,100.930,255.000,4.000
6174000,-12.450,-10.060,503.260,-2.440,12.810,-0.520,19.400,100.930,255.000,130.000
6180000,-8.140,nan,nan,nan,nan,nan,19.400,100.930,255.000,95.000
6186000,-13.890,-7.180,403.660,-0.820,-8.020,-0.930,19.400,100.930,255.000,137.000
6192000,-4.310,-6.220,582.750,-2.330,12.570,-0.500,19.500,100.930,255.000,5.000
6198000,5.270,-15.320,684.260,-3.890,-1.920,-0.890,19.500,100.930,255.000,188.000
6204000,2.390,1901.950,-7.660,-2.880,14.960,-0.810,19.500,100.930,255.000,108.000
6210000,7.180,-2.390,-11.490,0.610,11.490,-0.950,19.500,100.940,255.000,206.000
6216000,-17.240,1911.050,492.250,-1.590,-20.950,0.240,19.500,100.930,255.000,127.000
6222000,2.870,1787.510,889.210,-1.460,7.420,-0.720,19.600,100.930,255.000,113.000
6228000,11.490,1879.930,-8.140,-2.210,10.890,-0.400,19.600,100.940,255.000,2.000
6234000,-15.800,1877.530,656.970,-2.730,12.090,-0.470,19.600,100.930,255.000,42.000
6240000,5.750,1878.490,623.450,-2.490,11.010,-0.890,19.600,100.930,255.000,116.000
6246000,1.920,-12.450,626.800,-2.640,12.930,-0.950,19.600,100.930,255.000,24.000
6252000,9.580,1883.280,612.920,-2.610,12.090,-0.750,19.600,100.930,255.000,1.000
6258000,5.750,1879.930,-4.790,-2.430,12.210,-0.530,19.600,100.930,255.000,1.000
6264000,14.370,-12.930,624.410,-2.260,12.450,-0.950,19.600,100.930,255.000,1.000
6270000,-1.440,-12.930,627.280,-2.350,12.090,-0.230,19.600,100.930,255.000,1.000
6276000,0.000,-6.220,619.620,-2.330,13.890,-0.410,19.600,100.930,255.000,1.000
6282000,8.620,-11.010,614.350,-2.410,11.730,-0.640,19.600,100.930,255.000,1.000
6288000,-2.870,-6.700,-4.310,-2.200,13.890,-0.750,19.600,100.930,255.000,1.000
6294000,-11.970,1878.970,-10.060,-2.180,10.650,-0.580,19.600,100.930,255.000,1.000
6300000,3.350,-6.220,-7.180,-2.530,12.330,-0.240,19.600,100.930,255.000,1.000
6306000,5.270,-9.100,-5.750,-2.730,11.730,-0.600,19.600,100.930,255.000,1.000
6312000,6.220,-11.970,644.040,-2.370,11.250,-0.630,19.600,100.930,255.000,1.000
6318000,-0.960,1882.800,617.700,-2.560,13.290,-0.520,19.500,100.930,255.000,1.000
6324000,-1.920,-14.840,-12.930,-2.530,9.340,-0.560,19.500,100.930,255.000,1.000
6330000,-1.440,1880.880,-1.920,-2.550,11.850,-0.750,19.500,100.930,255.000,1.000
6336000,-14.370,1883.280,-9.100,-2.610,10.890,-0.760,19.500,100.930,255.000,1.000
6342000,-4.790,1876.100,-3.350,-2.240,12.330,-0.440,19.500,100.930,255.000,1.000
6348000,11.970,1883.280,-9.100,-2.610,11.010,-0.670,19.500,100.930,255.000,1.000
6354000,4.790,-15.320,618.180,-2.440,12.690,-0.500,19.500,100.920,255.000,1.000
6360000,-3.830,-3.350,621.530,-2.460,13.170,-0.440,19.500,100.930,255.000,1.000
6366000,3.830,-13.410,627.760,-2.350,12.210,-0.780,19.500,100.930,255.000,1.000
6372000,4.790,1881.840,-10.060,-2.270,12.690,-0.670,19.500,100.930,255.000,1.000
6378000,-5.270,1879.450,-5.750,-2.290,13.170,-0.550,19.500,100.930,255.000,1.000
6384000,1.440,-8.620,-10.530,-2.670,-14.960,-1.140,19.400,100.920,255.000,1.000
6390000,5.750,-14.840,625.840,-2.620,13.770,-0.530,19.500,100.930,255.000,1.000
6396000,-5.750,1878.490,-5.750,-2.370,12.570,-0.350,19.400,100.930,255.000,1.000
6402000,13.410,1883.760,-13.890,-2.380,9.580,-0.820,19.400,100.930,255.000,1.000
6408000,-3.350,1875.620,624.410,-2.170,11.610,-0.560,19.400,100.920,255.000,1.000
6414000,-1.920,nan,nan,nan,nan,nan,19.400,100.930,255.000,1.000
6420000,8.620,-10.530,650.270,-2.110,12.930,-0.840,19.400,100.930,255.000,1.000
6426000,0.960,-11.010,617.700,-2.170,13.290,-0.810,19.400,100.920,255.000,1.000
6432000,2.870,-9.100,-7.180,-2.700,-15.320,-0.340,19.300,100.930,255.000,1.000
6438000,2.390,nan,nan,nan,nan,nan,19.300,100.930,255.000,1.000
6444000,3.830,-14.370,622.490,-2.430,13.410,-0.490,19.300,100.930,255.000,1.000
6450000,-6.220,-12.450,616.750,-2.150,10.300,-0.580,19.300,100.930,255.000,1.000
6456000,4.310,-3.830,-13.890,-2.440,9.940,-0.720,19.300,100.930,255.000,1.000
6462000,3.350,1878.490,-11.010,-2.170,11.370,-0.410,19.300,100.930,255.000,1.000
6468000,-15.320,-10.060,627.760,-2.690,11.010,-0.460,19.300,100.930,255.000,1.000
6474000,-12.450,1881.840,-9.100,-2.290,11.730,-0.950,19.300,100.930,255.000,1.000
6480000,-7.660,-13.410,-1.440,-2.300,14.720,-0.410,19.300,100.930,255.000,1.000
6486000,1.920,-13.410,618.660,-2.290,11.610,-0.640,19.300,100.930,255.000,1.000
6492000,0.000,1880.880,-2.870,-2.350,14.600,-0.560,19.300,100.930,255.000,1.000
6498000,-1.920,1883.760,-13.890,-2.350,12.450,-0.730,19.300,100.930,255.000,1.000
6504000,8.620,1880.410,-8.140,-2.530,13.170,-0.490,19.300,100.930,255.000,1.000
6510000,-2.390,-3.830,623.450,-2.490,12.930,-0.990,19.300,100.930,255.000,1.000
6516000,-0.480,1883.280,620.100,-2.150,-15.200,-0.870,19.200,100.930,255.000,1.000
6522000,7.660,-15.320,618.660,-2.670,14.720,-0.320,19.200,100.930,255.000,1.000
6528000,11.490,-10.530,619.140,-2.530,14.960,-0.610,19.200,100.930,255.000,1.000
6534000,12.450,-4.310,-11.970,-2.440,13.890,-0.530,19.200,100.920,255.000,1.000
6540000,-3.350,-12.450,617.700,-2.380,11.010,-0.630,19.200,100.930,255.000,1.000
6546000,6.700,-5.750,-13.410,-2.560,11.130,-0.630,19.200,100.930,255.000,1.000
6552000,-3.830,-13.890,-3.350,-2.410,14.720,-0.560,19.200,100.930,255.000,1.000
6558000,5.270,1881.360,619.620,-2.270,13.050,-0.380,19.200,100.930,255.000,1.000
6564000,4.790,1879.930,624.410,-2.690,14.370,-0.630,19.200,100.920,255.000,1.000
6570000,7.660,1882.320,617.700,-2.720,-15.080,-0.750,19.200,100.930,255.000,1.000
6576000,-0.960,-10.530,623.450,-2.430,11.730,-0.560,19.200,100.930,255.000,1.000
6582000,-1.920,-5.270,615.310,-2.380,11.250,-0.470,19.200,100.940,255.000,1.000
6588000,12.450,-6.220,-6.220,-2.170,13.410,-0.750,19.200,100.930,255.000,1.000
6594000,-6.700,-8.620,-12.930,-2.410,10.300,-0.760,19.200,100.930,255.000,1.000
6600000,-3.350,-10.530,622.490,-2.290,14.370,-0.640,19.200,100.930,255.000,1.000
6606000,-2.390,-13.410,617.700,-2.370,14.600,-0.760,19.200,100.930,255.000,1.000
6612000,2.870,1880.880,622.970,-2.140,14.250,-0.790,19.200,100.930,255.000,1.000
6618000,-11.010,-10.530,-9.580,-2.660,9.820,-0.610,19.200,100.920,255.000,1.000
6624000,-10.060,1882.800,-13.410,-2.810,12.090,-0.610,19.100,100.930,255.000,1.000
6630000,3.830,-4.310,-10.060,-2.530,11.490,-0.640,19.200,100.930,255.000,1.000
6636000,-5.270,1875.140,-8.620,-2.610,13.290,-0.720,19.100,100.930,255.000,1.000
6642000,7.180,1882.320,-6.700,-2.300,12.690,-0.610,19.200,100.920,255.000,1.000
6648000,10.060,1882.800,616.750,-2.410,11.610,-0.690,19.100,100.930,255.000,1.000
6654000,6.700,-13.410,627.760,-2.550,11.250,-0.350,19.100,100.930,255.000,1.000
6660000,-0.960,-11.490,-11.490,-2.410,10.060,-0.410,19.100,100.920,255.000,1.000
6666000,-7.660,1883.280,620.580,-2.460,13.770,-0.430,19.100,100.920,255.000,1.000
6672000,2.390,1875.140,615.310,-2.430,11.970,-0.690,19.100,100.930,255.000,1.000
6678000,1.440,1883.760,627.760,-2.580,11.130,-0.400,19.100,100.920,255.000,1.000
6684000,5.750,-14.370,-10.060,-2.560,13.410,-0.600,19.100,100.930,255.000,1.000
6690000,0.480,1882.800,622.490,-2.330,13.410,-0.760,19.100,100.930,255.000,1.000
6696000,-5.270,-11.970,618.180,-2.400,15.200,-0.700,19.100,100.920,255.000,1.000
6702000,-6.220,1882.800,-0.480,-2.550,13.530,-0.810,19.100,100.920,255.000,1.000
6708000,0.480,-15.320,624.890,-2.260,14.250,-0.550,19.100,100.920,255.000,1.000
6714000,-0.480,-11.970,-10.060,-2.460,13.170,-0.900,19.100,100.920,255.000,1.000
6720000,8.620,1880.880,-3.830,-2.610,15.080,-0.560,19.100,100.930,255.000,1.000
6726000,0.480,-15.320,-9.580,-2.180,12.570,-0.750,19.100,100.920,255.000,1.000
6732000,7.180,-14.840,-15.320,-2.260,13.050,-0.890,19.100,100.930,255.000,1.000
6738000,6.700,1882.800,-7.180,-2.730,12.930,-0.670,19.100,100.930,255.000,1.000
6744000,3.830,-8.620,-2.870,-2.240,11.490,-0.560,19.000,100.930,255.000,1.000
6750000,-2.390,-9.580,624.410,-2.590,13.050,-0.920,19.100,100.930,255.000,1.000
6756000,10.530,1875.620,626.320,-2.230,13.170,-0.580,19.100,100.940,255.000,1.000
6762000,-1.920,-13.410,-0.960,-2.640,13.410,-0.410,19.100,100.930,255.000,1.000
6768000,-2.870,-12.450,618.180,-2.530,13.290,-0.550,19.100,100.930,255.000,1.000
6774000,-7.180,1883.760,624.410,-2.640,10.650,-0.550,19.100,100.930,255.000,1.000
6780000,0.000,-13.410,621.060,-2.320,11.850,-0.340,19.000,100.930,255.000,1.000
6786000,1.440,nan,nan,nan,nan,nan,19.100,100.930,255.000,1.000
6792000,-13.410,-5.270,616.270,-2.230,11.970,-0.410,19.100,100.930,255.000,1.000
6798000,0.960,-7.180,-8.140,-2.500,13.050,-0.690,19.100,100.940,255.000,1.000
6804000,8.620,-13.890,-13.410,-2.170,12.330,-0.430,19.000,100.930,255.000,1.000
6810000,10.060,-8.140,643.560,-2.410,14.130,-0.550,18.900,100.930,255.000,1.000
6816000,-9.100,1879.930,-9.580,-2.260,12.210,-0.610,18.900,100.930,255.000,1.000
6822000,-2.870,1880.880,-0.480,-2.370,13.050,-0.790,19.100,100.940,255.000,1.000
6828000,5.750,1876.100,624.890,-2.380,10.890,-0.440,19.000,100.930,255.000,1.000
6834000,-11.970,1883.280,-15.320,-2.380,14.960,-0.610,19.000,100.930,255.000,1.000
6840000,7.180,-8.620,-3.350,-2.290,10.530,-0.550,19.000,100.930,255.000,1.000
6846000,11.490,1878.970,621.530,-2.490,14.370,-0.810,19.000,100.930,255.000,1.000
6852000,12.450,1873.220,-5.270,-2.470,14.840,-0.580,19.000,100.930,255.000,1.000
6858000,-1.440,nan,nan,nan,nan,nan,19.000,100.940,255.000,1.000
6864000,3.350,1873.220,-13.410,-2.400,11.250,-0.660,19.000,100.940,255.000,1.000
6870000,-0.960,-11.970,-8.620,-2.410,-15.080,-0.490,19.000,100.940,255.000,1.000
6876000,-12.450,-11.010,-4.790,-2.460,12.210,-0.490,19.000,100.950,255.000,1.000
6882000,-14.840,-4.310,-1.920,-2.380,9.700,-0.820,19.000,100.940,255.000,1.000
6888000,3.350,-10.530,618.660,-2.290,12.330,-0.460,19.000,100.940,255.000,1.000
6894000,3.350,-14.370,617.230,-2.410,12.210,-0.370,19.000,100.940,255.000,1.000
6900000,-6.700,-11.490,613.390,-2.640,13.530,-0.660,18.900,100.950,255.000,1.000
6906000,11.490,-11.970,-4.310,-2.260,12.930,-0.500,18.900,100.940,255.000,1.000
6912000,-6.220,nan,nan,nan,nan,nan,19.000,100.930,255.000,1.000
6918000,-0.960,1883.760,-11.490,-2.320,12.930,-0.980,19.000,100.940,255.000,1.000
6924000,-1.440,-14.840,-11.010,-2.550,-13.290,-0.560,19.000,100.940,255.000,1.000
6930000,7.180,-11.010,621.060,-2.460,10.410,-0.810,19.000,100.940,255.000,1.000
6936000,-7.660,-11.970,622.490,-2.490,13.170,-0.180,19.000,100.930,255.000,1.000
6942000,10.060,-11.490,621.530,-2.560,14.960,-0.640,18.900,100.930,255.000,1.000
6948000,8.620,-12.930,-12.450,-2.580,12.330,-0.640,19.000,100.930,255.000,1.000
6954000,10.060,-11.970,-14.370,-2.640,13.770,-0.500,19.000,100.930,255.000,1.000
6960000,8.140,1882.320,-11.490,-2.410,14.250,-0.320,19.000,100.930,255.000,1.000
6966000,-0.960,1881.360,-12.930,-2.580,13.650,-0.500,19.000,100.930,255.000,1.000
6972000,3.830,-10.060,619.620,-2.530,13.170,-0.700,19.000,100.930,255.000,1.000
6978000,7.180,1880.880,619.620,-2.440,14.250,-0.930,19.000,100.940,255.000,1.000
6984000,11.010,1900.520,627.280,-2.110,13.890,-0.690,19.000,100.930,255.000,1.000
6990000,-15.320,-8.620,620.580,-2.140,12.090,-0.950,19.000,100.940,255.000,1.000
6996000,-4.790,1879.930,624.410,-2.590,13.770,-0.700,18.900,100.940,255.000,1.000
7002000,2.870,1872.270,-12.450,-2.290,14.370,-0.460,19.000,100.930,255.000,1.000
7008000,5.750,-13.410,621.530,-2.330,-14.130,-0.850,19.000,100.930,255.000,1.000
7014000,-5.750,-13.410,614.830,-2.460,14.480,-0.600,19.000,100.930,255.000,1.000
7020000,7.180,1878.490,627.280,-2.350,9.700,-0.440,18.900,100.930,255.000,1.000
7026000,1.440,1872.270,-15.320,-2.430,9.940,-0.380,19.000,100.940,255.000,1.000
7032000,-3.350,1879.930,-5.750,-2.210,14.250,-0.750,18.900,100.930,255.000,1.000
7038000,11.010,1882.320,-10.060,-2.120,14.720,-0.630,18.900,100.930,255.000,1.000
7044000,2.390,-14.840,-2.870,-2.270,10.890,-0.490,18.900,100.930,255.000,1.000
7050000,8.620,1881.360,-14.840,-2.560,12.090,-0.640,19.000,100.930,255.000,1.000
7056000,3.830,1883.760,617.700,-2.320,12.810,-0.670,18.900,100.930,255.000,1.000
7062000,-3.830,-12.450,-12.450,-2.370,11.490,-0.630,18.900,100.930,255.000,1.000
7068000,10.060,-14.840,615.310,-2.300,12.090,-0.630,18.900,100.930,255.000,1.000
7074000,3.830,1881.360,-1.440,-2.380,13.050,-0.730,18.900,100.940,255.000,1.000
7080000,9.580,1880.410,622.010,-2.410,13.890,-0.640,18.900,100.930,255.000,1.000
7086000,-4.310,1871.790,615.310,-2.430,11.250,-0.500,18.900,100.930,255.000,1.000
7092000,11.490,-13.410,626.800,-2.230,14.600,-0.640,18.900,100.930,255.000,1.000
7098000,-1.440,1875.140,618.180,-2.290,11.850,-0.760,18.900,100.930,255.000,1.000
7104000,-5.750,-5.270,-12.930,-2.290,10.410,-0.870,18.900,100.930,255.000,1.000
7110000,-4.790,-11.490,618.660,-2.440,12.570,-0.690,18.900,100.930,255.000,1.000
7116000,-3.350,1878.490,-13.410,-2.240,13.050,-0.810,18.900,100.930,255.000,1.000
7122000,-4.790,-14.840,-6.220,-2.590,12.450,-0.560,18.900,100.940,255.000,1.000
7128000,11.010,1876.580,620.100,-2.700,14.130,-0.580,18.900,100.930,255.000,1.000
7134000,-1.440,1878.490,619.140,-2.120,13.410,-0.660,18.800,100.940,255.000,1.000
7140000,-4.790,1883.760,-11.010,-2.460,9.340,-0.720,18.900,100.930,255.000,1.000
7146000,-8.620,-7.660,621.530,-2.270,13.170,-0.890,18.900,100.930,255.000,1.000
7152000,-6.220,1881.360,-1.440,-2.320,11.970,-0.520,18.900,100.930,255.000,1.000
7158000,11.490,1882.800,-9.580,-2.230,13.530,-0.720,18.900,100.940,255.000,1.000
7164000,6.700,-14.370,620.580,-2.500,12.930,-0.700,18.900,100.930,255.000,1.000
7170000,-15.320,1883.760,623.930,-2.560,12.090,-0.560,18.900,100.940,255.000,1.000
7176000,-2.390,1881.360,626.800,-2.670,11.370,-0.460,18.900,100.930,255.000,1.000
7182000,3.350,-15.320,616.750,-2.080,12.690,-0.440,18.900,100.930,255.000,1.000
7188000,0.480,1878.490,-1.920,-2.120,13.410,-0.550,18.900,100.930,255.000,1.000
7194000,8.140,-15.320,-1.440,-2.290,12.810,-0.890,18.900,100.930,255.000,1.000
7200000,5.750,1882.320,-14.840,-2.240,12.330,-0.560,18.900,100.930,255.000,1.000
7206000,-3.350,-12.930,624.890,-2.560,13.170,-0.790,18.900,100.930,255.000,1.000
7212000,0.960,-15.320,-9.100,-2.350,10.530,-0.810,18.900,100.930,255.000,1.000
7218000,-8.140,-13.890,624.410,-2.210,14.720,-0.530,18.900,100.940,255.000,1.000
7224000,-3.830,-11.970,-7.660,-2.350,10.530,-0.440,18.900,100.940,255.000,1.000
7230000,-1.440,-10.530,-13.410,-2.500,14.370,-0.460,18.900,100.930,255.000,1.000
7236000,-8.620,1879.930,620.580,-2.440,13.650,-0.790,18.900,100.930,255.000,1.000
7242000,7.180,-12.930,-11.010,-2.060,13.770,-0.560,18.900,100.940,255.000,1.000
7248000,-7.180,1882.800,-4.790,-2.410,14.010,-0.520,18.900,100.930,255.000,1.000
7254000,1.920,1883.760,-9.580,-2.490,11.370,-0.370,18.900,100.930,255.000,1.000
7260000,2.870,-12.450,627.760,-2.040,11.370,-0.580,18.900,100.940,255.000,1.000
7266000,0.480,1878.970,-11.970,-2.060,-14.010,-0.750,18.900,100.940,255.000,1.000
7272000,-1.920,-8.140,-7.660,-2.320,10.650,-0.520,18.900,100.930,255.000,1.000
7278000,nan,nan,nan,nan,nan,nan,18.900,100.930,nan,nan
7788000,-17.720,1904.830,565.030,-2.660,11.130,-0.520,nan,nan,nan,nan
7794000,-12.930,1912.490,554.500,-2.080,11.250,-0.600,18.700,100.930,255.000,58.000
7800000,-18.670,1912.010,553.540,-2.180,12.090,-0.440,18.800,100.930,255.000,58.000
7806000,-140.300,-5.270,472.620,-3.170,5.630,-0.520,18.700,100.930,255.000,53.000
7812000,-112.530,1718.560,-4.790,-0.090,-7.780,-3.190,18.800,100.930,255.000,43.000
7818000,-10.530,1753.990,1164.540,-0.670,-16.400,-0.690,18.900,100.940,255.000,40.000
7824000,0.480,-11.490,-3.350,-2.300,11.850,-0.520,19.000,100.940,255.000,59.000
7830000,-3.830,-0.960,-6.700,-2.040,10.060,-0.400,18.700,100.940,255.000,59.000
7836000,6.220,-8.140,871.010,-3.540,15.080,-0.700,19.000,100.940,255.000,59.000
7842000,-6.700,-1.920,865.260,-2.840,14.720,-0.950,19.000,100.930,255.000,59.000
7848000,-17.720,-7.660,870.530,-2.260,8.740,-0.340,19.000,100.940,255.000,59.000
7854000,-6.220,1846.410,719.700,-7.160,12.930,-1.910,19.000,100.940,255.000,49.000
7860000,-5.270,1844.970,-12.450,-2.240,14.480,-0.690,19.100,100.940,255.000,53.000
7866000,nan,nan,nan,nan,nan,nan,19.100,100.950,255.000,53.000
7914000,-12.930,nan,nan,nan,nan,nan,nan,nan,nan,nan
7920000,-17.720,1848.320,-14.370,-2.200,-14.960,-0.640,19.500,100.950,255.000,50.000
7926000,-1.920,1839.700,744.120,-2.320,15.200,-0.380,19.500,100.940,255.000,58.000
7932000,-2.390,1839.230,-6.700,-2.000,13.650,-0.660,19.500,100.940,255.000,58.000
7938000,0.480,1842.100,-10.060,-2.520,8.860,-0.340,19.600,100.950,255.000,58.000
7944000,-13.890,nan,nan,nan,nan,nan,19.500,100.950,255.000,58.000
7950000,-14.370,-1.920,769.500,-2.320,11.610,-0.690,19.600,100.950,255.000,58.000
7956000,-18.670,1844.490,800.140,-1.820,13.530,-0.870,19.600,100.950,255.000,58.000
7962000,-11.010,nan,nan,nan,nan,nan,19.600,100.950,255.000,59.000
7968000,-2.390,-12.930,-6.700,-2.150,-10.530,-0.370,19.600,100.940,255.000,69.000
7974000,nan,1971.390,-8.140,-6.240,-7.660,-0.930,nan,100.950,nan,nan
7992000,-9.100,-1068.290,811.160,-18.880,-11.010,-1.740,19.700,100.940,247.000,10.000
7998000,-1.440,-6.700,-7.180,97.950,-10.180,-0.230,19.700,100.940,119.000,10.000
8004000,1390.550,-6.220,1852.150,25.020,-8.260,-0.530,20.400,100.930,12.000,29.000
8010000,-1.440,-13.890,1900.520,28.200,340.580,423.480,20.100,100.950,9.000,55.000
8016000,1012.750,-15.320,1821.990,-2.840,44.530,-19.380,20.000,100.950,8.000,59.000
8022000,-0.960,-11.970,-13.410,-6.530,-5.150,4.120,20.000,100.950,255.000,33.000
8028000,307.420,500.390,-12.450,9.630,-49.200,-0.820,19.900,100.950,26.000,49.000
8034000,-61.290,-10.530,2023.580,-0.580,-7.780,-2.990,19.900,100.950,110.000,46.000
8040000,-6.220,338.540,-9.580,-0.670,-10.530,-0.350,19.900,100.950,nan,nan
8076000,-6.220,1748.720,990.240,-2.560,11.850,-0.630,19.800,100.950,nan,nan
8082000,-3.830,1755.430,-1.920,-2.440,12.090,-0.700,19.800,100.950,255.000,27.000
8088000,-2.390,-0.480,-1.920,-2.490,11.610,-0.580,19.800,100.950,255.000,27.000
8094000,-7.180,1753.510,986.890,-2.330,10.890,-0.720,19.800,100.950,255.000,27.000
8100000,71.830,-0.960,-2.870,-2.230,12.810,-0.530,19.800,100.940,255.000,27.000
8106000,-8.140,-10.060,-1.440,-2.470,10.770,-0.890,19.800,100.950,255.000,27.000
8112000,-10.060,-0.480,-6.220,-2.560,9.220,-0.700,19.700,100.940,255.000,27.000
8118000,-4.790,-10.060,-4.790,-2.720,14.840,-0.730,nan,nan,255.000,27.000
22614000,63.210,1044.350,1722.870,47.100,-5.390,-1.790,nan,nan,nan,nan
22620000,-12.450,-7.180,1932.600,44.220,10.060,144.640,18.600,101.170,34.000,54.000
22626000,224.100,-14.370,1962.290,-0.580,-418.390,83.020,18.600,101.170,203.000,43.000
22632000,900.700,442.930,-13.410,-1.190,-16.520,-2.760,18.600,101.180,15.000,13.000
22638000,-5.750,-13.890,-13.890,110.210,-12.810,-84.990,18.700,101.180,14.000,37.000
22644000,675.640,-3.350,-11.010,-163.380,-153.110,-0.320,18.700,101.180,54.000,10.000
22650000,-450.590,289.220,-13.890,-46.070,-8.860,-0.980,18.800,101.190,9.000,423.000
22656000,nan,nan,nan,nan,nan,nan,18.800,101.190,nan,nan
22662000,-2.870,-6.700,-12.930,-0.340,-7.900,-0.230,18.800,101.180,9.000,252.000
22668000,-361.520,-0.960,1657.750,-1.240,-53.270,-93.170,18.700,101.180,24.000,233.000
22674000,498.470,-10.060,-7.660,-175.250,-10.410,-87.940,18.600,101.180,10.000,184.000
22680000,-178.610,0.960,1994.370,12.650,-10.650,-0.610,18.600,101.180,32.000,235.000
22686000,-12.450,-2.870,-4.310,-57.080,-6.820,-30.440,18.400,101.180,85.000,88.000
22692000,276.770,223.620,2087.740,-0.150,-12.570,-0.790,18.200,101.180,97.000,142.000
22698000,226.010,-2.870,2094.450,-60.810,-180.040,-19.260,18.100,101.180,104.000,120.000
22704000,312.200,-7.180,-11.010,-11.570,-5.750,-1.890,18.100,101.180,255.000,98.000
22710000,-7.180,311.730,2024.060,-1.690,67.760,-3.540,17.900,101.170,123.000,376.000
22716000,221.700,245.170,2036.030,13.410,-3.110,19.810,17.800,101.170,104.000,202.000
22722000,-12.450,198.240,-12.450,-1.330,-4.790,35.740,17.700,101.170,185.000,347.000
22728000,63.210,220.750,1634.760,-92.010,-10.410,-0.170,17.700,101.170,113.000,228.000
22734000,531.990,-13.410,-9.580,-45.440,153.230,-1.250,17.700,101.170,255.000,122.000
22740000,-1333.570,-1.920,1444.180,82.470,-2.990,27.620,17.600,101.180,8.000,709.000
22746000,-996.470,-49.320,-5.750,-0.780,-366.670,-76.460,17.600,101.170,9.000,337.000
22752000,-2.390,-5.750,1718.560,-6.210,68.120,-0.730,17.500,101.180,8.000,144.000
22758000,-639.250,405.100,1599.810,-0.460,-12.810,-1.630,17.500,101.180,9.000,216.000
22764000,-4.790,133.600,1570.120,-0.630,37.110,-0.640,17.500,101.180,8.000,276.000
22770000,-267.670,-10.060,-12.450,-1.040,-7.180,-1.390,17.500,101.180,7.000,219.000
22776000,-1190.400,122.580,1626.140,-2.640,-8.500,1.590,17.400,101.170,11.000,284.000
22782000,-1158.310,-12.450,1596.450,41.000,-6.940,-0.780,17.300,101.170,7.000,440.000
22788000,345.720,nan,nan,nan,nan,nan,17.200,101.170,9.000,258.000
22794000,410.850,-3.830,2055.660,-1.590,98.280,32.100,17.200,101.170,16.000,259.000
22800000,nan,-19.630,2302.740,79.640,-111.090,39.220,nan,nan,nan,nan
24726000,-10.530,103.430,1962.770,46.920,-13.410,-0.430,nan,nan,nan,nan
24732000,218.350,260.010,2027.410,-6.000,11.850,-1.220,18.300,101.060,9.000,24874.000
24738000,133.120,157.060,2084.390,-1.450,-10.060,-17.590,18.400,101.080,8.000,28381.000
24744000,-15.320,-1.440,-7.180,-0.900,-10.410,-1.830,18.400,101.070,22.000,3607.000
24750000,-13.890,-262.880,-10.060,-0.460,222.300,-159.850,17.300,100.750,137.000,2393.000
24756000,705.810,-55.550,-7.660,-3.710,160.050,15.880,18.300,101.060,26.000,5619.000
24762000,-11.970,-9.100,593.280,-0.560,-4.070,-0.750,18.300,101.070,114.000,3166.000
24768000,-1.920,-1.920,-2.390,-3.070,-13.290,1.800,18.400,101.110,255.000,703.000
24774000,681.870,-1713.770,92.420,-1.420,-14.250,-1.800,18.500,101.140,255.000,925.000
24780000,-11.970,895.430,-1034.770,-3.450,-12.090,-1.390,18.400,101.130,10.000,5382.000
24786000,-6.220,-177.650,-15.320,-0.930,-7.420,56.370,18.400,101.130,9.000,7607.000
24792000,1320.160,740.770,1576.820,-15.580,-10.410,-26.890,18.400,101.130,13.000,8317.000
24798000,1234.450,649.790,1658.700,-1.590,66.680,-1.220,18.400,101.110,10.000,6082.000
24804000,-12.450,615.790,749.860,-18.080,-2.750,-1.630,18.400,101.120,9.000,7904.000
24810000,-2.870,401.750,902.610,-0.720,1.440,48.650,18.400,101.130,9.000,5885.000
24816000,1851.200,-2.870,525.770,-58.500,-9.700,-54.520,18.200,101.090,9.000,5523.000
24822000,-7.180,-5.270,440.050,-0.110,-3.590,-1.070,18.200,101.110,6.000,2590.000
24828000,-13.410,-13.890,1081.700,-1.370,-0.120,-1.680,18.200,101.100,7.000,9238.000
24834000,2175.850,-5.270,951.930,-1.270,-61.050,66.970,17.900,101.050,10.000,10604.000
24840000,-12.930,6.700,-7.660,-0.380,-6.700,1.430,17.900,101.080,9.000,8717.000
24846000,2150.950,128.330,827.910,-0.890,-545.160,-6.040,17.500,100.980,9.000,10619.000
24852000,2145.680,-489.850,-10.060,-170.380,-8.140,-26.290,17.500,100.980,6.000,11253.000
24858000,1750.640,-2.870,-13.890,-0.440,2299.870,141.540,18.000,101.090,8.000,37889.000
24864000,-0.120,771.890,-3.830,-0.500,-10.300,-1.190,18.000,101.110,10.000,37889.000
24870000,-5.270,-1.440,-1154.480,-1.420,-6.340,-60.580,18.100,101.100,8.000,23681.000
24876000,-9.100,-389.300,-5.270,24.780,-3.230,-1.500,18.100,101.080,8.000,18062.000
24882000,1746.810,434.790,-15.320,-1.250,-7.540,25.210,18.200,101.080,8.000,6667.000
24888000,-1855.510,-3.830,-6.700,-25.410,-7.780,-0.490,17.800,101.010,8.000,37889.000
24894000,-5.270,64.640,247.080,12.160,-27.530,-1.830,18.000,100.960,8.000,37889.000
24900000,-0.480,-51.240,-10.060,-0.700,406.890,-11.670,18.200,100.980,8.000,37889.000
24906000,-6.220,-2.390,183.870,297.530,441.610,-0.080,18.300,100.980,8.000,32834.000
24912000,746.510,1382.410,406.060,-1.430,-10.650,13.000,18.700,101.100,9.000,13419.000
24918000,-3.830,931.340,-8.620,-0.960,626.320,82.080,18.800,101.140,11.000,9210.000
24924000,-476.920,-15.320,-13.410,149.280,-5.270,-0.460,18.500,101.110,10.000,11327.000
24930000,-10.530,407.970,-14.370,281.570,-415.150,-0.460,18.800,101.130,91.000,5823.000
24936000,-6.700,742.680,-14.840,-1.340,-5.990,-0.240,18.500,101.000,8.000,23078.000
24942000,-7.660,-10.530,1997.720,-0.080,368.950,25.250,18.800,101.120,8.000,6610.000
24948000,462.080,-22.030,-551.620,-0.640,500.030,348.560,18.600,101.050,8.000,3711.000
24954000,1691.740,-13.410,-9.580,-1.170,1267.490,-1.140,19.000,101.160,9.000,3045.000
24960000,-0.480,-8.620,-5.270,-1.530,-18.440,71.170,18.800,101.110,9.000,32307.000
24966000,-1434.130,-3.830,-5.750,-1.340,-107.740,-1.500,19.000,101.120,8.000,21790.000
24972000,nan,nan,nan,nan,nan,nan,19.100,101.140,nan,nan
24984000,-1833.480,-6.700,-4.790,-1.050,92.060,1.570,19.100,101.140,9.000,5776.000
24990000,-11.970,-9.100,-966.300,-57.620,2.630,211.490,19.300,101.120,6.000,8624.000
24996000,-5.270,-6.700,-1458.070,-14.770,-16.520,-15.300,19.000,101.070,8.000,17202.000
25002000,-971.570,nan,nan,nan,nan,nan,19.300,101.110,6.000,5458.000
25008000,-5.270,-14.370,-1679.290,-0.110,-2.270,-271.990,19.200,101.120,7.000,11976.000
25014000,nan,nan,nan,nan,nan,nan,19.600,101.050,8.000,11745.000
25032000,-7.660,-13.890,-1578.740,9.400,65.720,-1.600,19.700,101.110,6.000,11129.000
25038000,-1101.330,-7.660,-1648.650,232.270,-13.770,121.490,19.800,101.110,6.000,37889.000
25044000,-7.660,-2.870,-0.480,-6.580,-10.530,-0.110,19.900,101.120,9.000,6648.000
25050000,400.790,-7.660,-14.840,-0.230,-11.970,103.420,19.900,101.110,29.000,6266.000
25056000,-2.390,1382.410,-7.660,-1.720,-7.180,-18.540,19.800,101.090,5.000,6316.000
25062000,-943.790,-7.180,-1098.460,-0.520,-9.940,-19.520,19.800,101.100,11.000,5679.000
25068000,-77.090,-5.750,-1.440,-1.160,592.450,-0.050,19.800,101.100,10.000,5116.000
25074000,-14.840,-10.060,-1093.670,-148.300,873.170,-0.850,19.800,101.060,11.000,6016.000
25080000,-1274.670,1299.570,-3.350,-1.890,-10.650,125.020,19.900,101.080,8.000,5490.000
25086000,-416.110,1626.140,-15.320,-14.680,-12.090,9.340,20.000,101.110,9.000,5749.000
25092000,-10.530,1484.880,-3.830,-34.000,-12.570,4.390,19.700,101.090,9.000,6147.000
25098000,-1.920,1329.740,-1649.130,-0.550,-200.270,-73.060,19.700,101.070,10.000,5761.000
25104000,-14.370,-4.790,-0.480,-1.430,98.400,-0.760,19.700,101.090,9.000,7914.000
25110000,-9.100,-5.750,-1645.300,-0.180,165.440,-1.790,19.800,101.050,8.000,12244.000
25116000,-913.150,1380.500,-169.990,0.050,-13.410,-30.490,19.700,101.090,7.000,7611.000
25122000,-855.210,1568.680,-356.260,28.990,-9.460,-0.500,19.700,101.090,9.000,6554.000
25128000,-11.970,-7.660,-332.320,32.010,-1.320,-0.020,19.500,101.090,8.000,5458.000
25134000,-419.940,1778.410,-8.620,1.800,-9.100,39.310,19.300,101.070,9.000,10515.000
25140000,-520.020,1820.550,-13.410,-80.730,-1.200,-1.500,19.200,101.080,8.000,11121.000
25146000,nan,nan,nan,nan,nan,nan,18.800,101.070,9.000,14499.000
25152000,-487.460,1722.870,-822.650,-13.690,344.770,-38.730,18.700,101.080,30.000,1682.000
25158000,-874.360,1696.050,-418.510,-0.020,-4.310,-14.040,18.800,101.080,23.000,3112.000
25164000,-847.070,1697.970,-328.010,-7.100,-13.530,-1.020,18.800,101.080,8.000,3790.000
25170000,-15.320,-10.060,-122.100,-1.240,1994.490,-1.040,18.800,101.090,7.000,4729.000
25176000,-7.660,1722.390,-13.410,-0.320,-10.180,-15.230,18.600,101.080,9.000,5063.000
25182000,-8.140,-10.060,-324.170,5.800,-6.110,-0.400,18.700,101.090,6.000,6678.000
25188000,-792.960,1666.840,-7.660,-1.500,-12.330,51.040,18.600,101.100,8.000,4738.000
25194000,-10.060,-10.530,-663.190,-1.560,-14.600,20.570,18.500,101.040,10.000,8038.000
25200000,-11.490,-8.620,-3.830,-0.920,-0.120,-68.440,18.600,101.060,9.000,31245.000
25206000,nan,nan,nan,nan,nan,nan,18.700,101.100,7.000,31724.000
25212000,-1.440,-15.320,-1.920,-0.560,-3.350,87.620,18.700,101.090,6.000,13628.000
25218000,-509.010,2243.370,-579.880,-2.150,2882.020,-0.320,18.600,101.110,6.000,17474.000
25224000,-14.370,1974.260,-2.390,-89.230,-2.040,-1.110,18.400,101.130,7.000,13452.000
25230000,nan,nan,nan,nan,nan,nan,18.400,101.070,nan,nan
25254000,-12.450,-6.700,-239.420,-1.710,-391.090,35.800,18.300,101.090,9.000,22459.000
25260000,-15.320,-4.790,-8.620,-1.140,-10.650,-1.770,18.200,101.100,8.000,37889.000
25266000,-0.480,2339.140,-7.180,-142.700,-1.200,-21.870,17.700,101.010,7.000,36378.000
25272000,-11.010,1727.180,-3.830,-37.170,-7.420,-9.990,18.400,101.050,8.000,36404.000
25278000,-793.920,-12.450,-421.380,-1.850,-3.710,-1.510,17.100,101.000,8.000,37889.000
25284000,-1001.730,2220.860,-14.370,-0.820,-875.320,-101.140,15.100,100.570,6.000,37889.000
25290000,-980.670,-12.450,-366.310,-1.400,-1338.120,-1.340,16.700,100.610,6.000,37889.000
25296000,-915.060,2002.510,-477.400,-1.750,-1.560,47.730,18.800,100.850,8.000,37889.000
25302000,-790.570,1844.970,-480.760,-0.820,-15.200,63.870,16.800,100.690,9.000,37722.000
25308000,-753.220,1997.720,-662.720,-1.210,-4.550,-0.520,18.800,101.010,9.000,28509.000
25314000,-754.650,2084.390,-14.370,-1.690,-9.340,-1.950,18.400,101.090,8.000,25545.000
25320000,-1065.900,-4.790,-9.580,142.240,-1639.670,259.690,18.800,100.960,9.000,37889.000
25326000,-947.630,1964.200,-421.860,-1.390,-735.260,184.780,16.200,100.570,8.000,37889.000
25332000,-544.440,-3.350,-582.270,5.160,-14.720,39.460,17.500,101.000,11.000,31164.000
25338000,-10.060,-8.620,-267.190,28.320,-8.260,-70.050,18.600,100.940,8.000,37889.000
25344000,-673.730,1628.540,-326.570,-108.760,-12.210,99.140,19.200,101.040,7.000,37889.000
25350000,-635.900,-11.970,-11.010,-57.240,-78.170,-1.310,19.400,101.080,7.000,37889.000
25356000,-6.700,-8.620,-5.270,-249.360,735.860,-27.220,19.400,101.100,12.000,37889.000
25362000,-13.410,-10.060,-1.440,21.330,-662.600,172.010,19.100,101.050,10.000,37889.000
25368000,-6.220,-11.010,-270.540,-0.380,67.640,-1.240,19.200,101.020,2.000,37889.000
25374000,-794.870,-12.450,-13.410,-0.380,-575.690,-187.180,19.300,101.020,5.000,37889.000
25380000,-611.480,1596.450,-384.510,-0.960,-13.410,180.110,19.400,101.040,9.000,37889.000
25386000,-1063.980,-6.220,-11.010,-244.350,-1098.580,-1.820,19.400,101.010,10.000,37889.000
25392000,-574.130,1170.760,-14.370,243.420,-7.420,188.800,19.600,101.050,10.000,37889.000
25398000,-11.010,1607.950,-455.860,-1.530,-10.410,-1.040,19.900,101.130,10.000,37889.000
25404000,-1186.090,-12.450,-11.970,-0.600,-5.990,-486.860,19.700,101.120,8.000,37889.000
25410000,-11.490,1516.490,-232.720,71.320,246.960,-1.540,19.500,101.090,14.000,37832.000
25416000,-10.060,-10.060,-367.270,-500.000,-11.250,-170.100,19.500,101.100,6.000,34056.000
25422000,-8.620,2237.620,-231.760,137.480,-0.240,-0.410,19.500,101.120,12.000,37889.000
25428000,-5.270,-7.180,-428.080,-330.150,-13.650,-1.170,19.500,101.140,8.000,37889.000
25434000,-4.790,-3.350,-1.920,-1.910,-3.470,-1.540,19.500,101.130,9.000,37889.000
25440000,-12.930,2035.070,-8.140,-0.810,-1887.710,-53.180,19.200,101.150,nan,37889.000
25446000,-6.700,1753.510,-417.070,20.480,-1.920,-2.780,19.300,101.160,10.000,37889.000
25452000,-731.670,1691.740,-391.690,-0.290,-3922.660,-93.730,19.200,101.130,nan,nan
25458000,-782.430,1937.870,-12.930,-212.910,-118.030,-1.800,nan,nan,9.000,37889.000
25464000,-1092.230,-0.960,-2.870,138.610,-3922.660,-23.240,19.000,101.110,12.000,37889.000
25470000,-783.380,-1.440,-671.810,-0.370,779.070,-0.760,19.000,101.090,8.000,37889.000
25476000,-0.960,-3.830,-2.870,-1.360,1228.460,-0.240,nan,100.980,5.000,nan
25482000,nan,nan,nan,nan,nan,nan,19.000,nan,nan,nan
25524000,-816.900,1993.410,0.000,-1.330,-1741.780,-1.480,18.900,101.100,9.000,37489.000
25548000,nan,nan,nan,nan,nan,nan,18.800,101.070,nan,nan
25554000,-4.790,1940.260,-3.350,-327.840,-14.600,-0.030,18.900,101.070,2.000,37889.000
25560000,-887.290,-7.180,-12.450,-500.000,-9.340,-0.890,18.800,101.070,nan,14972.000
25566000,-4.310,-3.830,-421.380,-127.010,2733.700,-0.370,18.900,101.080,10.000,11326.000
25572000,-8.140,1233.970,-6.220,-77.900,-59.740,188.160,19.100,101.080,nan,nan
25596000,982.100,-0.120,-14.370,20.710,-0.120,298.510,19.200,101.100,9.000,15670.000
25602000,-15.320,-3.830,-230.320,-1.130,-1185.610,0.020,18.800,101.050,10.000,37127.000
25608000,-3.830,2119.350,-6.220,-0.550,1940.140,-1.740,18.800,101.000,15.000,25571.000
25614000,-851.380,2727.470,-4.790,-0.020,-720.300,-1.430,18.500,100.990,nan,37889.000
25620000,-544.920,1668.280,-175.730,-41.410,-6.220,-1.830,19.000,101.030,5.000,37889.000
25626000,-6.220,-11.490,-182.440,-0.790,432.270,16.010,19.200,101.060,nan,nan
25632000,-10.530,-13.890,-4.790,493.040,-0.120,-1.170,19.300,101.040,5.000,36521.000
25638000,-852.340,2147.120,-15.320,-0.690,-7.900,87.020,nan,nan,nan,nan
25686000,-13.890,-6.220,-8.140,-217.620,-6.220,-0.670,nan,nan,9.000,37889.000
25692000,-306.460,-9.580,-203.030,180.850,-12.090,-1.650,18.000,101.060,28.000,23530.000
25698000,nan,nan,nan,nan,nan,nan,18.000,101.040,nan,9581.000
25704000,nan,nan,nan,nan,nan,nan,nan,nan,252.000,nan
25734000,-727.840,1930.680,439.100,-1.500,-9.460,-0.920,18.100,101.170,51.000,755.000
25740000,-537.740,-12.450,-1.440,-0.340,280.240,-1.860,17.900,101.170,167.000,217.000
25746000,-4.310,-13.890,346.680,-2.150,-1.920,-84.170,18.100,101.190,11.000,267.000
25752000,-4.310,1759.740,-13.410,-2.410,14.720,-0.400,18.100,101.180,nan,410.000
25758000,-1.440,1760.220,-7.660,-2.170,11.850,-0.850,18.100,101.190,7.000,426.000
25764000,309.810,1758.780,950.980,-0.630,7.420,-0.320,18.200,101.190,11.000,434.000
25770000,-1.440,-14.840,925.600,-2.240,13.770,-0.490,18.200,101.180,10.000,434.000
25776000,308.850,1761.170,-11.010,-2.010,13.530,-0.640,18.300,101.190,9.000,433.000
25782000,309.330,1753.510,927.510,-2.490,13.410,-0.730,18.300,101.180,11.000,304.000
25788000,308.370,1750.640,-9.100,-2.700,13.170,-0.580,18.300,101.180,9.000,423.000
25794000,-4.310,1752.560,-15.320,-2.380,11.490,-0.610,18.400,101.190,9.000,438.000
25800000,309.810,1757.340,931.340,-2.410,10.890,-0.400,18.400,101.190,9.000,435.000
25806000,-0.480,1752.080,-2.870,-2.380,-15.200,-0.520,18.400,101.180,9.000,437.000
25812000,310.770,1753.030,-13.410,-2.460,13.050,-0.470,18.500,101.180,10.000,437.000
25818000,312.680,1756.870,934.220,-2.290,9.940,-0.760,18.500,101.180,10.000,439.000
25824000,-10.530,1760.700,958.640,-2.610,13.410,-0.520,18.500,101.190,9.000,437.000
25830000,315.080,1748.720,951.930,-2.470,9.940,-0.580,18.600,101.190,8.000,437.000
25836000,316.510,1747.290,-1.440,-2.080,11.250,-0.560,nan,101.180,nan,nan
25842000,311.250,1758.780,-1.440,-2.200,12.570,-0.810,18.600,101.180,9.000,454.000
25848000,-0.480,1753.990,-13.410,-1.920,13.050,-0.370,18.700,101.180,8.000,453.000
25854000,311.250,1749.680,-1.920,-2.490,13.530,-0.500,18.700,101.180,10.000,454.000
25860000,-9.580,1749.200,-12.930,-2.350,14.130,-0.700,18.700,101.190,8.000,449.000
25866000,316.990,-11.010,951.460,-2.500,13.050,-0.640,18.800,101.180,9.000,452.000
25872000,319.870,-14.370,952.410,-2.400,13.530,-0.640,18.800,101.180,9.000,448.000
25878000,316.030,-0.960,-4.310,-2.440,11.130,-0.850,18.800,101.190,6.000,447.000
25884000,311.250,1755.430,-10.060,-2.430,11.730,-0.750,18.900,101.180,nan,452.000
25890000,-6.700,1753.990,954.330,-2.660,13.770,-0.310,18.900,101.180,7.000,453.000
25896000,307.890,-1.920,950.020,-2.430,14.960,-0.240,18.900,101.180,8.000,460.000
25902000,316.030,1747.770,-13.410,-2.750,11.010,-0.690,18.900,101.180,8.000,279.000
25908000,310.290,1756.390,-9.100,-2.270,6.820,-0.610,18.900,101.170,9.000,281.000
25914000,313.160,-1.440,956.720,-2.140,13.170,-0.690,18.900,101.180,8.000,242.000
25920000,317.470,-1.920,951.460,-1.860,13.650,-0.780,19.000,101.180,8.000,276.000
25926000,318.910,1747.770,962.470,-2.470,14.720,-0.440,19.000,101.180,9.000,275.000
25932000,321.300,1752.560,-6.220,-2.270,13.410,-0.440,19.000,101.180,10.000,276.000
25938000,318.430,1752.560,955.770,-2.560,-14.720,-0.580,19.000,101.180,10.000,276.000
25944000,-3.350,1751.120,954.330,-2.290,10.650,-0.520,19.000,101.190,7.000,276.000
25950000,-13.890,1747.290,960.070,-2.410,13.770,-0.550,19.000,101.190,11.000,279.000
25956000,309.330,-11.490,956.720,-2.350,10.530,-0.400,19.100,101.180,8.000,282.000
25962000,312.200,-7.660,950.500,-2.410,13.770,-0.310,19.100,101.180,8.000,276.000
25968000,317.950,-5.270,954.810,-2.700,15.200,-0.270,19.100,101.180,8.000,275.000
25974000,309.330,1754.470,964.380,-2.210,9.700,-0.720,19.100,101.180,8.000,278.000
25980000,317.950,-11.970,954.810,-2.210,12.450,-0.560,19.100,101.180,8.000,279.000
25986000,317.950,-5.270,961.990,-2.490,11.970,-0.600,19.100,101.180,9.000,277.000
25992000,311.250,1749.200,959.120,-1.980,12.810,-0.690,19.100,101.180,10.000,275.000
25998000,307.420,1749.200,-1.920,-2.330,14.960,-0.730,19.100,101.180,10.000,276.000
26004000,306.940,1748.250,-2.390,-2.200,12.090,-0.840,19.200,101.180,nan,277.000
26010000,312.680,-7.180,-7.660,-2.880,12.210,-0.470,19.200,101.180,10.000,274.000
26016000,-3.350,-5.750,955.770,-2.620,12.090,-0.720,19.200,101.180,7.000,280.000
26022000,317.470,-7.660,964.380,-2.520,-14.720,-0.730,19.200,101.180,10.000,279.000
26028000,319.870,1753.030,-4.310,-2.170,11.130,-0.870,19.200,101.180,nan,nan
26034000,317.470,-7.180,-12.450,-2.460,12.450,-0.700,19.200,101.180,9.000,279.000
26040000,312.200,1751.120,-6.700,-2.550,10.650,-1.080,19.200,101.170,nan,459.000
26046000,310.770,1754.470,954.330,-2.240,12.450,-0.470,19.200,101.170,10.000,456.000
26052000,319.390,-9.580,957.200,-1.770,11.850,-1.050,19.300,101.170,8.000,442.000
26058000,315.080,1750.160,-11.970,-2.090,12.930,-0.580,19.300,101.170,7.000,443.000
26064000,-14.840,1748.250,956.240,-2.290,13.290,-0.780,19.300,101.180,11.000,439.000
26070000,-4.310,-4.310,-3.350,-2.750,11.850,-0.470,19.300,101.180,10.000,441.000
26076000,-12.450,-7.180,961.510,-2.430,13.170,-0.520,19.400,101.170,9.000,437.000
26082000,-6.220,-12.450,950.500,-2.210,12.210,-0.630,19.400,101.170,9.000,445.000
26088000,-1.440,-2.870,956.240,-2.270,13.650,-0.810,19.400,101.170,7.000,452.000
26094000,314.120,-4.790,-1.920,-2.500,10.410,-0.720,19.400,101.180,8.000,451.000
26100000,312.680,-4.310,-7.660,-2.290,11.010,-0.470,19.500,101.180,9.000,439.000
26106000,308.370,-6.700,-6.700,-2.580,14.010,-0.780,19.500,101.170,10.000,439.000
26112000,314.600,-3.350,961.510,-2.400,10.300,-0.370,19.500,101.180,10.000,437.000
26118000,-14.370,1754.470,956.240,-2.170,10.530,-0.610,19.500,101.170,11.000,443.000
26124000,311.730,1748.250,964.860,-2.470,10.300,-0.750,19.500,101.180,10.000,444.000
26130000,313.160,-5.270,-1.920,-2.330,12.090,-0.600,19.500,101.180,10.000,448.000
26136000,312.680,1749.200,923.200,-2.110,7.540,-0.530,19.600,101.180,11.000,447.000
26142000,318.430,-9.100,953.850,-2.380,12.810,-0.700,19.600,101.180,26.000,216.000
26148000,-6.220,-4.790,686.660,-0.640,14.960,-0.530,19.600,101.180,8.000,638.000
26154000,93.850,-5.270,776.200,-2.840,-13.410,-0.600,20.400,101.180,7.000,640.000
26160000,-2.870,1851.200,773.810,-2.550,14.840,-0.630,20.100,101.180,6.000,641.000
26166000,101.040,1844.010,773.330,-2.610,8.980,-0.400,20.000,101.170,8.000,639.000
26172000,-5.270,1851.200,769.980,-2.210,7.180,-0.110,20.000,101.180,9.000,645.000
26178000,-4.790,-13.410,-1.440,-2.750,11.730,-0.400,19.900,101.170,9.000,643.000
26184000,93.370,-9.100,-6.220,-2.140,12.090,-0.870,19.900,101.180,7.000,640.000
26190000,-0.480,-4.310,-12.930,-2.430,14.720,-0.870,19.900,101.180,7.000,638.000
26196000,105.820,-5.750,-14.840,-2.210,15.200,-0.500,20.000,101.180,8.000,639.000
26202000,93.370,-0.960,-7.180,-2.500,13.530,-0.630,19.900,101.170,7.000,637.000
26208000,-2.870,-5.270,778.120,-2.900,-14.840,-0.340,19.900,101.180,8.000,501.000
26214000,94.330,-6.220,775.240,-2.440,13.530,-0.610,19.900,101.180,12.000,210.000
26220000,103.910,-5.270,775.720,-2.370,10.300,-0.730,20.000,101.180,12.000,331.000
26226000,100.080,-10.060,-14.840,-2.880,14.250,-0.350,19.900,101.170,14.000,247.000
26232000,94.810,1840.660,-3.350,-2.580,14.370,-0.610,20.000,101.160,13.000,453.000
26238000,97.680,-9.580,-13.890,-2.460,14.720,-0.720,20.000,101.160,14.000,305.000
26244000,-0.960,1844.010,774.280,-2.910,13.530,-0.430,20.000,101.170,14.000,260.000
26250000,91.940,1844.490,771.410,-2.350,11.010,-0.340,20.000,101.170,15.000,204.000
26256000,-8.140,-7.180,-3.350,-2.690,10.770,-0.550,20.000,101.170,13.000,218.000
26262000,99.600,1842.580,796.790,-2.620,13.170,-0.440,20.000,101.170,13.000,265.000
26268000,98.640,-2.390,-15.320,-2.260,12.810,-0.920,20.000,101.170,13.000,325.000
26274000,99.120,1839.230,797.270,-2.900,14.370,-0.400,20.000,101.170,15.000,248.000
26280000,-2.390,1844.490,-1.920,-2.120,13.290,-0.890,20.000,101.170,12.000,263.000
26286000,96.250,-1.920,796.790,-2.530,11.130,-0.850,20.000,101.180,13.000,224.000
26292000,102.950,-5.270,799.660,-2.490,13.170,-0.320,20.000,101.180,14.000,234.000
26298000,96.730,1821.030,797.270,-2.300,11.010,-0.520,20.000,101.170,13.000,359.000
26304000,106.780,-8.620,-13.410,-2.840,12.570,-0.500,20.000,101.170,14.000,216.000
26310000,104.390,-1.920,-12.930,-2.560,12.210,-0.490,20.000,101.170,8.000,638.000
26316000,98.640,-4.310,801.100,-2.330,11.850,-0.690,20.100,101.180,7.000,639.000
26322000,-4.310,-0.480,805.890,-2.430,12.450,-0.610,20.000,101.170,8.000,637.000
26328000,93.370,-4.310,769.980,-2.460,12.690,-0.380,20.100,101.170,8.000,642.000
26334000,-14.370,-11.490,-0.480,-2.560,13.890,-0.560,20.000,101.170,7.000,655.000
26340000,-7.660,-6.700,-4.310,-2.170,13.290,-0.560,20.100,101.180,15.000,164.000
26346000,92.420,-11.970,-8.140,-2.610,10.770,-0.410,20.100,101.170,9.000,637.000
26352000,-1.440,1821.990,-11.010,-2.410,14.130,-0.550,nan,nan,nan,nan
29694000,-146.530,nan,nan,nan,nan,nan,nan,nan,nan,nan
29700000,nan,-3.350,-142.690,-2.560,-13.530,-0.460,21.000,101.050,8.000,370.000
29706000,-1.920,-1919.190,-6.700,-3.010,5.750,-0.790,21.000,101.040,11.000,365.000
29712000,-199.680,-1922.540,-9.580,-3.520,8.140,-0.370,21.000,101.050,10.000,414.000
29718000,-213.560,-1924.940,-81.880,-2.470,8.500,-0.470,21.000,101.050,40.000,229.000
29724000,-8.620,-1924.940,-90.020,-3.520,14.960,-0.700,21.000,101.040,15.000,373.000
29730000,-0.960,-12.930,-1.440,-2.010,99.480,4.990,21.000,101.040,46.000,528.000
29736000,-4.310,-1920.150,2.870,0.690,-23.220,-0.310,22.200,101.060,34.000,156.000
29742000,-200.630,-1899.080,-7.660,-10.500,13.650,-1.740,24.900,101.060,74.000,179.000
29748000,-11.490,-1928.290,39.260,-2.930,10.770,-0.580,22.500,101.060,69.000,959.000
29754000,-4.790,-14.840,340.930,-52.840,42.740,-0.090,22.200,101.050,90.000,259.000
29760000,-11.010,-1930.210,-10.060,-3.310,11.130,-0.640,22.000,101.050,8.000,486.000
29766000,-11.970,-14.370,-109.650,-0.690,-0.360,-0.890,21.900,101.060,255.000,273.000
29772000,-11.970,-12.930,-2.870,-1.430,-2.630,-1.800,21.900,101.050,13.000,253.000
29778000,-91.460,-3.830,161.850,-2.980,-16.640,1.430,22.000,101.050,136.000,237.000
29784000,-9.100,-14.370,-22.980,-22.870,-5.990,-0.340,21.900,101.050,37.000,314.000
29790000,-173.820,-7.660,-11.490,-0.810,-12.090,1.510,21.900,101.050,8.000,316.000
29796000,-175.260,-1828.210,34.960,-9.870,13.650,-2.460,21.800,101.050,8.000,321.000
29802000,nan,-1925.900,-1.920,-1.800,7.900,-0.470,21.700,101.050,5.000,318.000
29808000,-182.920,-4.790,95.770,1.910,-30.050,-3.390,21.700,101.050,10.000,319.000
29814000,-170.470,-1923.020,-13.410,-3.080,8.620,-0.820,21.700,101.050,8.000,332.000
29820000,-5.270,-1917.760,160.890,-2.690,11.850,-0.700,21.600,101.030,9.000,333.000
29826000,nan,-1915.840,185.790,-1.620,-0.840,-0.750,21.600,101.040,9.000,332.000
29832000,-143.650,-1918.230,-6.220,-3.780,-14.600,-0.380,21.500,101.040,8.000,335.000
29838000,-177.170,-1.440,-12.930,-2.760,11.010,-0.760,21.500,101.040,6.000,322.000
29844000,nan,-1.440,-4.790,-2.850,13.650,-0.350,21.400,101.030,18.000,216.000
29850000,-8.140,-1.920,-6.700,-2.320,10.770,-0.270,21.400,101.030,24.000,278.000
29856000,-172.860,-1927.810,-8.620,-2.870,12.810,-0.810,21.300,101.040,22.000,242.000
29862000,nan,-3.830,162.330,-2.900,8.860,-0.430,21.300,101.030,21.000,220.000
29868000,-173.340,-1924.940,159.450,-3.050,11.610,-0.730,21.300,101.050,22.000,209.000
29874000,nan,-6.220,165.680,-2.640,9.940,-0.270,21.300,101.040,23.000,207.000
29880000,-170.470,-1927.330,158.020,-3.140,-15.320,-0.370,21.300,101.040,nan,nan
29886000,-173.820,-3.830,154.190,-2.550,11.250,-0.700,21.300,101.040,31.000,284.000
29892000,-4.310,-3.830,-2.390,-2.210,6.820,-0.580,21.200,101.050,nan,206.000
29898000,-169.030,-2.390,153.230,-2.990,11.010,-0.640,21.200,101.040,14.000,216.000
29904000,-179.570,-1927.810,153.710,-2.560,12.210,-0.410,21.200,101.040,19.000,221.000
29910000,-180.040,-5.270,-2.870,-2.990,13.530,-0.460,21.200,101.040,20.000,246.000
29916000,-11.490,-1923.500,164.240,-2.460,11.010,-0.580,21.100,101.040,19.000,230.000
29922000,-11.010,-11.970,161.850,-0.730,-6.110,-0.290,21.100,101.040,21.000,216.000
29928000,nan,-1929.250,161.370,-2.640,10.650,-0.640,21.100,101.040,21.000,198.000
29934000,-169.030,-1.920,-1.920,-3.360,13.410,-0.840,21.200,101.040,28.000,325.000
29940000,-182.920,-0.480,-4.310,-2.380,11.610,-0.500,21.100,101.040,16.000,199.000
29946000,nan,-1929.250,-11.490,-2.820,9.580,-0.900,21.000,101.040,17.000,223.000
29952000,-171.900,-1929.250,162.810,-2.820,14.010,-0.500,20.900,101.030,14.000,181.000
29958000,-176.690,-13.410,157.540,-2.820,10.890,-0.790,21.000,101.040,8.000,279.000
29964000,nan,-2.390,164.240,-2.640,13.410,-0.610,20.900,101.040,8.000,308.000
29970000,-14.370,-1930.210,-10.060,-2.240,13.050,-0.700,21.000,101.040,232.000,884.000
29976000,-173.820,-1930.680,157.540,-2.930,12.930,-0.530,21.000,101.040,187.000,889.000
29982000,-181.000,-1929.730,165.680,-2.490,10.650,-0.730,20.900,101.040,15.000,368.000
29988000,-175.260,-0.480,158.500,-3.100,13.770,-0.820,20.900,101.010,9.000,311.000
29994000,nan,-8.620,-7.660,-2.910,10.890,-0.790,20.800,101.030,8.000,319.000
30000000,-12.930,-6.220,-11.490,-3.690,-9.460,-0.610,20.700,101.020,7.000,322.000
30006000,-169.030,-1930.680,159.450,-1.790,8.020,-0.700,20.700,101.030,9.000,328.000
30012000,-179.090,-3.350,-2.870,-2.590,10.530,-0.660,20.700,101.040,8.000,326.000
30018000,nan,-1927.810,-10.060,-2.490,10.530,-0.610,20.700,101.040,8.000,328.000
30024000,-169.030,-1930.680,159.450,-3.040,11.490,-0.870,20.700,101.040,9.000,325.000
30030000,-177.170,-1922.070,154.670,-2.430,10.530,-0.660,20.700,101.020,8.000,327.000
30036000,-177.650,-1927.330,-1.920,-2.780,11.490,-0.230,20.600,101.030,9.000,326.000
30042000,-177.650,-1920.630,166.160,-2.400,13.170,-0.750,20.600,101.040,8.000,326.000
30048000,-175.260,-1.440,-6.220,-2.290,11.010,-0.820,20.600,101.020,8.000,325.000
30054000,nan,-7.180,-11.970,-2.520,13.290,-0.670,20.600,101.040,8.000,333.000
30060000,-12.450,-1928.770,154.670,-2.490,11.130,-0.640,20.500,101.020,6.000,331.000
30066000,-14.370,-2.870,166.160,-2.730,-15.080,-1.220,20.500,101.030,7.000,329.000
30072000,-14.840,-1924.940,167.120,-2.590,12.930,-0.520,20.500,101.030,8.000,327.000
30078000,-174.300,-1924.940,168.070,-2.550,13.890,-0.850,20.500,101.030,6.000,327.000
30084000,nan,-1918.230,153.710,-2.820,13.290,-0.610,20.400,101.030,nan,328.000
30090000,-178.610,-4.790,-14.840,-2.590,13.290,-0.690,20.500,101.030,7.000,329.000
30096000,-174.780,-1929.730,163.760,-2.500,12.690,-0.890,20.500,101.040,nan,nan
30102000,-14.370,-9.580,157.540,-2.590,13.290,-0.500,20.500,101.030,9.000,328.000
30108000,nan,-1.920,158.970,-2.490,13.890,-0.690,20.400,101.030,7.000,328.000
30114000,-181.480,-9.580,-15.320,-1.650,11.970,-0.670,20.500,101.020,10.000,329.000
30120000,nan,-1920.150,163.760,-2.550,9.460,-0.660,20.400,101.020,10.000,328.000
30126000,-7.660,-4.790,-10.060,-2.500,14.250,-0.550,20.500,101.000,8.000,327.000
30132000,-11.970,-1929.250,167.120,-2.640,9.340,-0.630,20.400,100.990,8.000,329.000
30138000,nan,-14.370,-3.350,-2.490,9.940,-0.720,20.400,101.030,9.000,327.000
30144000,-14.840,-1917.760,166.160,-2.840,13.770,-0.640,20.400,101.030,9.000,328.000
30150000,-174.780,-1929.250,160.890,-2.260,13.170,-0.810,20.400,101.030,11.000,328.000
30156000,nan,-14.840,160.890,-2.410,12.450,-0.550,nan,nan,nan,nan
30222000,-14.370,-1921.110,-3.830,-2.520,12.930,-0.850,20.500,101.020,13.000,289.000
30228000,-10.530,-1921.590,158.020,-2.750,11.370,-0.580,20.500,101.020,12.000,287.000
30234000,-11.970,nan,nan,nan,nan,nan,nan,nan,nan,nan
30240000,-5.750,-1.440,158.500,-2.820,11.250,-0.760,20.400,101.020,13.000,291.000
30246000,-172.380,-4.310,163.280,-2.610,12.930,-0.500,20.400,101.030,12.000,290.000
30252000,-169.030,-1918.710,162.330,-2.530,11.850,-1.010,20.400,101.030,9.000,289.000
30258000,-179.090,-6.220,164.720,-2.780,11.850,-0.730,20.400,101.020,13.000,287.000
30264000,-13.410,-1929.730,164.720,-2.750,10.300,-0.440,20.400,101.020,14.000,289.000
30270000,-12.450,-5.750,163.280,-2.560,8.860,-0.630,20.400,101.030,11.000,290.000
30276000,-8.620,-4.790,155.620,-2.560,10.410,-0.630,20.400,101.030,11.000,288.000
30282000,-4.790,-1930.210,160.890,-2.660,13.050,-0.340,20.400,101.020,12.000,289.000
30288000,-170.950,-3.350,159.930,-2.700,12.330,-0.600,20.400,101.030,14.000,287.000
30294000,-171.900,-1929.730,163.280,-2.590,11.730,-0.930,20.400,101.020,12.000,287.000
30300000,-11.970,-4.790,-11.010,-2.660,13.290,-0.700,20.300,101.020,15.000,287.000
30306000,-10.060,-1924.940,165.200,-2.550,12.930,-0.630,20.400,101.020,12.000,286.000
30312000,-0.480,-1930.210,156.580,-2.720,13.170,-0.500,20.400,101.030,13.000,288.000
30318000,-15.320,-1.440,-8.140,-2.400,12.090,-0.700,20.300,101.030,12.000,285.000
30324000,-170.950,-3.350,166.160,-3.020,10.890,-0.500,20.400,101.020,14.000,285.000
30330000,-7.180,-0.480,158.020,-2.550,10.060,-0.610,20.300,101.030,13.000,286.000
30336000,-6.220,-1920.150,159.930,-2.720,11.490,-0.610,20.300,101.020,11.000,289.000
30342000,-10.530,-1923.980,-10.060,-2.750,-15.080,-0.690,20.300,101.020,11.000,286.000
30348000,-171.900,-1927.810,-2.390,-2.530,14.130,-0.960,20.300,101.020,13.000,287.000
30354000,-7.180,-1919.190,163.280,-2.270,10.770,-0.640,20.300,101.030,13.000,285.000
30360000,-175.260,-10.530,158.500,-2.760,11.370,-0.520,20.300,101.020,11.000,285.000
30366000,-12.930,-2.870,-5.270,-2.530,11.370,-0.640,20.200,101.030,11.000,286.000
30372000,-12.930,-1.920,157.060,-2.550,13.890,-0.630,20.300,101.030,11.000,293.000
30378000,-14.840,-2.390,158.970,-2.520,8.860,-0.790,20.200,101.020,13.000,284.000
30384000,-7.660,-1918.710,-12.930,-2.610,10.890,-0.490,20.200,101.030,13.000,283.000
30390000,-11.010,-3.350,164.240,-2.550,11.370,-0.520,20.200,101.020,13.000,283.000
30396000,-175.260,-1929.250,-9.100,-2.550,10.770,-0.690,20.200,101.030,12.000,284.000
30402000,-12.930,-7.660,167.120,-2.660,9.700,-0.550,20.200,101.010,10.000,282.000
30408000,-1.920,-1.920,162.330,-2.790,11.370,-0.630,20.200,101.030,12.000,282.000
30414000,-170.470,-1916.800,156.100,-2.580,14.250,-0.260,20.100,101.030,12.000,283.000
30420000,-10.060,-1930.680,161.370,-2.530,12.570,-0.520,20.100,101.030,12.000,286.000
30426000,-8.140,-2.390,156.580,-2.330,12.930,-0.500,20.100,101.030,nan,285.000
30432000,-170.950,-1930.210,154.190,-2.690,12.930,-0.550,20.100,101.020,12.000,282.000
30438000,-4.310,-1923.020,167.590,-2.530,11.850,-1.010,20.100,101.010,12.000,281.000
30444000,-5.270,-1929.730,159.930,-2.410,12.810,-0.530,20.100,101.020,nan,nan
30450000,-10.530,-1.440,165.680,-2.720,13.170,-0.310,20.100,101.030,13.000,283.000
30456000,-179.570,-1917.280,-2.870,-2.580,12.450,-0.410,20.000,101.020,12.000,286.000
30462000,-169.510,-1924.460,161.370,-2.610,14.130,-0.820,20.000,101.020,13.000,282.000
30468000,-177.170,-2.870,-0.960,-2.690,15.080,-0.660,20.000,101.030,10.000,282.000
30474000,-2.390,-1929.730,158.500,-2.590,-15.200,-0.730,20.000,101.040,11.000,282.000
30480000,-14.370,-1921.110,153.710,-2.470,10.650,-0.240,19.900,101.030,12.000,283.000
30486000,-172.860,-1929.730,157.540,-2.580,11.850,-0.550,20.000,101.020,11.000,281.000
30492000,-6.220,-10.530,156.580,-2.400,11.010,-0.660,20.000,101.020,12.000,281.000
30498000,-1.920,-3.350,160.410,-2.640,11.370,-0.790,20.000,101.020,12.000,277.000
30504000,-4.790,-6.700,-2.870,-2.760,11.490,-0.640,20.000,101.030,12.000,280.000
30510000,-171.900,-1928.290,166.640,-2.590,11.010,-0.440,19.900,101.030,13.000,281.000
30516000,-15.320,-11.010,164.240,-2.240,9.220,-0.550,20.000,101.010,11.000,277.000
30522000,-11.010,-1927.330,159.450,-2.260,10.650,-0.580,19.900,101.030,13.000,280.000
30528000,-12.450,-1924.460,-11.010,-2.720,11.010,-0.640,19.900,101.030,10.000,279.000
30534000,-13.410,-1926.370,160.410,-2.380,10.650,-0.730,19.900,101.020,14.000,282.000
30540000,-12.930,-1923.500,158.500,-2.370,13.530,-0.640,19.600,100.930,15.000,281.000
30546000,-14.840,-1924.940,-14.370,-2.460,12.930,-0.610,19.700,101.030,12.000,277.000
30552000,-172.380,-13.890,164.240,-2.210,12.930,-0.550,19.900,101.020,13.000,277.000
30558000,-2.390,-1.440,164.240,-2.150,13.650,-0.930,19.900,101.020,11.000,280.000
30564000,-4.790,-1925.900,-0.960,-2.400,14.600,-0.430,19.900,101.020,12.000,276.000
30570000,-13.410,-11.010,167.120,-2.430,11.370,-0.780,19.900,101.020,12.000,272.000
30576000,-152.270,-8.620,155.620,-2.590,-15.080,-0.500,19.900,101.030,10.000,275.000
30582000,-14.840,-1928.290,-3.350,-2.610,9.460,-0.890,19.800,101.030,11.000,270.000
30588000,-3.830,-1920.150,168.070,-2.300,13.770,-0.840,19.800,101.010,12.000,271.000
30594000,-8.620,-1927.810,161.370,-2.410,12.690,-0.440,19.800,101.030,11.000,275.000
30600000,-14.370,-1928.770,164.240,-2.380,11.970,-0.530,19.800,101.020,13.000,274.000
30606000,-3.830,-1922.070,162.330,-2.660,12.090,-0.870,19.800,101.030,11.000,272.000
30612000,-152.750,-1926.370,164.720,-2.260,11.850,-0.700,19.800,101.020,12.000,271.000
30618000,-181.480,-10.530,-15.320,-2.200,12.330,-0.760,19.800,101.010,11.000,270.000
30624000,-173.820,-1927.810,157.540,-2.260,13.770,-0.700,19.800,101.020,12.000,271.000
30630000,-7.660,-3.830,162.330,-2.690,14.600,-0.720,19.700,100.970,12.000,272.000
30636000,-11.970,-13.890,-14.840,-2.380,15.200,-0.610,19.800,101.020,10.000,273.000
30642000,-10.530,-1929.730,159.930,-2.200,11.370,-0.470,19.700,101.010,12.000,272.000
30648000,-15.320,-1.440,160.890,-2.750,13.410,-0.320,19.800,101.000,12.000,271.000
30654000,-5.750,-6.700,167.590,-2.530,14.720,-0.500,19.700,101.010,16.000,273.000
30660000,-1.920,-1926.850,-10.060,-2.300,13.170,-0.520,19.800,101.020,14.000,274.000
30666000,-12.450,-1923.980,-1.920,-2.490,12.210,-0.780,19.700,101.010,12.000,273.000
30672000,-11.010,-1928.770,163.280,-2.440,12.090,-0.630,19.700,101.020,13.000,275.000
30678000,-12.450,-1922.070,168.070,-2.560,13.650,-0.670,19.700,101.010,14.000,275.000
30684000,-169.990,-6.700,-0.480,-2.550,9.580,-0.530,19.800,101.020,11.000,275.000
30690000,-4.310,-1930.680,162.810,-2.460,12.930,-0.610,19.700,101.010,13.000,275.000
30696000,-175.730,-2.390,159.450,-2.170,13.050,-0.440,19.800,101.020,12.000,275.000
30702000,-15.320,-1919.670,162.330,-2.180,13.770,-0.780,19.800,101.020,13.000,276.000
30708000,-8.620,-1918.230,162.330,-2.430,10.650,-0.640,19.800,101.020,11.000,275.000
30714000,-8.620,-1924.460,166.160,-2.530,11.970,-0.490,19.700,101.000,13.000,276.000
30720000,-171.900,-1923.980,168.070,-2.490,13.650,-0.660,19.800,101.010,13.000,276.000
30726000,-6.700,-4.310,160.890,-2.520,14.130,-0.530,19.700,101.020,14.000,273.000
30732000,-14.370,-1926.370,-12.450,-2.000,11.370,-0.790,19.700,101.000,13.000,275.000
30738000,-181.480,-1928.290,-8.620,-2.430,-14.600,-0.580,19.700,101.020,13.000,277.000
30744000,-175.730,-1928.290,-7.660,-2.560,13.050,-0.660,19.700,101.020,12.000,276.000
30750000,-9.100,-2.870,158.020,-2.300,9.580,-0.410,19.700,101.010,10.000,275.000
30756000,-11.010,-1919.670,167.120,-2.260,11.370,-0.630,19.800,101.010,13.000,278.000
30762000,-13.890,-3.350,-1.440,-2.660,11.970,-0.530,19.700,101.010,12.000,277.000
30768000,-152.270,-11.490,155.140,-2.590,12.930,-0.440,19.800,101.010,10.000,275.000
30774000,-11.490,-1924.460,-14.370,-2.780,11.610,-0.580,19.700,101.020,10.000,277.000
30780000,-12.930,-1928.770,-2.390,-2.240,13.290,-0.580,19.800,101.000,11.000,277.000
30786000,-9.580,-1.440,166.160,-2.590,12.090,-0.550,19.700,101.010,12.000,277.000
30792000,-3.830,-1927.810,157.060,-2.330,12.810,-0.640,19.800,101.010,13.000,276.000
30798000,-0.480,-1928.290,155.140,-2.300,12.330,-0.630,19.700,101.000,13.000,277.000
30804000,-169.990,-12.450,-15.320,-2.330,13.890,-0.180,19.800,101.010,12.000,277.000
30810000,-8.140,-1923.020,164.240,-2.300,11.370,-0.720,19.700,101.010,13.000,275.000
30816000,-11.010,-4.310,153.710,-2.670,13.890,-0.400,19.800,101.010,12.000,278.000
30822000,-172.380,-1930.210,-14.840,-2.640,12.330,-0.580,19.800,101.010,11.000,274.000
30828000,-5.270,-9.580,164.240,-2.590,12.210,-0.780,19.800,101.010,12.000,274.000
30834000,-7.180,-7.660,163.760,-2.590,12.210,-0.470,19.800,101.010,12.000,275.000
30840000,-12.930,-1922.540,163.280,-2.500,10.410,-0.790,19.800,101.010,14.000,275.000
30846000,-11.970,-8.140,-14.840,-2.350,14.370,-0.980,19.800,101.010,13.000,278.000
30852000,-12.930,-1921.110,161.370,-2.400,11.970,-0.580,19.800,101.010,14.000,279.000
30858000,-12.930,-4.790,155.140,-2.520,12.690,-0.320,19.800,101.000,12.000,276.000
30864000,-9.580,-13.410,153.710,-2.670,11.610,-0.780,19.800,101.010,11.000,271.000
30870000,-1.920,-5.750,168.070,-2.620,9.460,-0.920,19.800,101.000,13.000,272.000
30876000,-148.440,-4.310,159.450,-2.120,13.530,-0.460,19.800,101.010,13.000,272.000
30882000,-173.820,-1928.290,164.240,-2.350,11.850,-0.550,19.800,101.000,15.000,275.000
30888000,-180.040,-6.220,-8.620,-2.460,14.010,-0.700,19.800,101.010,13.000,273.000
30894000,-7.660,-1927.330,-2.870,-2.500,14.960,-0.560,19.800,101.010,12.000,273.000
30900000,-151.790,-9.100,-11.970,-2.440,12.570,-0.750,19.800,101.010,12.000,275.000
30906000,-180.520,-1927.330,-10.530,-2.470,11.130,-0.640,19.800,101.010,12.000,273.000
30912000,-170.950,-1927.330,159.450,-2.330,13.290,-0.720,19.800,101.010,13.000,274.000
30918000,-2.870,-1923.980,160.410,-2.230,12.210,-0.640,19.800,101.000,13.000,271.000
30924000,-13.410,-1930.680,183.870,-2.400,12.810,-0.790,19.800,101.010,12.000,272.000
30930000,-174.780,-5.750,168.070,-2.520,14.130,-0.470,19.800,101.000,11.000,272.000
30936000,-0.480,-6.220,-9.100,-2.990,12.330,-0.730,19.800,101.000,12.000,272.000
30942000,-10.060,-1926.850,-3.350,-2.290,14.250,-0.640,19.800,101.000,11.000,273.000
30948000,-180.520,-1915.840,165.680,-2.240,11.610,-0.730,19.800,101.000,12.000,271.000
30954000,-11.490,-1928.290,185.790,-2.610,10.530,-0.760,19.800,101.010,13.000,271.000
30960000,-11.010,-13.890,166.160,-2.430,13.290,-0.790,19.800,101.000,11.000,270.000
30966000,-173.340,-1928.770,-11.970,-2.290,15.200,-0.530,19.800,101.000,12.000,269.000
30972000,-173.340,-6.700,-6.700,-2.550,13.050,-0.700,19.800,101.000,11.000,269.000
30978000,-169.990,-5.270,156.580,-2.590,12.450,-0.490,19.800,101.000,12.000,271.000
30984000,-151.790,-4.790,-10.060,-2.730,10.300,-0.520,19.800,101.000,13.000,268.000
30990000,-178.130,-6.700,166.640,-2.470,14.010,-0.490,19.800,100.990,13.000,268.000
30996000,-8.140,-10.060,-12.930,-2.640,13.650,-0.530,19.900,101.000,13.000,268.000
31002000,-169.990,-1927.810,159.450,-2.490,14.370,-0.470,19.900,101.000,13.000,268.000
31008000,-15.320,-2.870,164.240,-2.210,12.810,-0.500,19.900,101.000,11.000,269.000
31014000,-9.580,-1929.250,166.160,-2.640,10.060,-0.370,19.900,101.000,13.000,267.000
31020000,-13.890,-5.270,162.810,-2.430,10.410,-0.610,19.900,101.000,13.000,266.000
31026000,-11.010,-1.440,168.070,-2.560,11.250,-0.700,19.900,101.000,11.000,265.000
31032000,-1.920,-6.220,154.190,-2.500,13.050,-0.560,19.900,101.010,13.000,270.000
31038000,-9.100,-1929.730,168.070,-2.470,12.810,-0.460,19.900,101.010,13.000,267.000
31044000,-10.530,-7.180,-13.890,-2.660,13.170,-0.610,19.900,101.000,11.000,261.000
31050000,-10.530,-1952.710,-14.370,-1.400,5.510,-0.600,19.900,101.000,12.000,268.000
31056000,-12.450,-1924.460,155.620,-1.250,-14.370,-0.990,19.900,101.000,16.000,152.000
31062000,-171.420,-1921.590,158.970,-2.230,12.210,-0.580,19.900,101.000,13.000,178.000
31068000,-171.420,-0.960,154.190,-2.790,13.650,-0.690,19.900,101.000,11.000,161.000
31074000,-150.830,-10.060,-8.140,-2.460,14.960,-0.580,19.900,100.990,13.000,167.000
31080000,-3.350,-7.180,-13.410,-2.550,14.480,-0.320,19.900,100.990,14.000,167.000
31086000,-4.310,-1927.810,183.870,-2.610,13.530,-0.340,19.900,101.000,13.000,167.000
31092000,-11.970,-10.060,-5.750,-2.320,12.930,-0.700,19.900,101.000,14.000,167.000
31098000,-172.380,-11.490,184.350,-2.580,10.770,-0.500,19.900,101.000,13.000,167.000
31104000,-169.510,-5.750,167.590,-2.500,13.170,-0.700,20.000,101.000,13.000,169.000
31110000,-152.750,-1929.250,167.120,-2.370,14.720,-0.490,19.900,100.990,13.000,168.000
31116000,-7.180,-3.830,-6.700,-2.440,14.720,-0.780,20.000,101.000,13.000,169.000
31122000,-170.950,-1946.960,163.280,-2.660,11.610,-0.400,19.900,101.000,12.000,167.000
31128000,-5.270,-1930.680,166.160,-2.810,12.810,-0.370,20.000,101.000,13.000,167.000
31134000,-11.970,-1923.020,159.930,-2.410,14.370,-0.630,19.900,100.990,13.000,167.000
31140000,-152.750,-1925.420,166.160,-2.790,10.890,-0.580,20.000,100.990,13.000,166.000
31146000,-4.790,-5.750,-6.700,-2.380,12.210,-0.700,19.900,100.990,13.000,167.000
31152000,-15.320,-1926.850,-12.930,-2.520,12.090,-0.460,20.000,101.000,11.000,166.000
31158000,-7.660,-1930.680,158.020,-2.400,14.010,-0.470,20.000,100.990,14.000,167.000
31164000,-6.700,-0.480,159.450,-2.380,14.250,-0.580,20.000,100.990,12.000,167.000
31170000,-0.480,-5.270,-12.930,-2.550,12.450,-0.890,20.000,100.990,11.000,166.000
31176000,-2.870,-1925.900,161.370,-2.470,13.650,-0.920,20.000,101.000,12.000,166.000
31182000,-15.320,-1924.460,-14.840,-2.660,11.250,-0.690,20.000,100.990,13.000,166.000
31188000,-0.960,-1.440,-1.920,-2.320,10.650,-0.600,20.000,100.990,11.000,166.000
31194000,-10.530,-0.960,164.240,-2.900,11.730,-0.890,20.000,100.990,14.000,166.000
31200000,-9.100,-5.750,156.100,-2.490,9.820,-0.840,20.000,100.990,14.000,165.000
31206000,-172.380,-5.750,166.160,-2.270,11.850,-0.790,20.000,100.990,14.000,165.000
31212000,-150.360,-1927.810,167.120,-2.550,12.690,-0.720,20.000,101.000,13.000,165.000
31218000,-2.870,-1924.940,159.450,-2.290,-15.200,-0.730,20.000,100.990,11.000,164.000
31224000,-6.220,-4.790,-14.840,-2.620,11.250,-0.950,20.000,101.000,12.000,166.000
31230000,-13.890,-1926.850,159.450,-2.780,10.060,-0.690,20.000,101.000,13.000,165.000
31236000,-169.990,-6.220,165.200,-2.370,-15.320,-0.780,20.000,101.000,12.000,163.000
31242000,-177.650,-1928.290,164.720,-2.660,14.010,-0.980,20.000,101.000,12.000,164.000
31248000,-7.660,-1.920,164.240,-2.820,9.940,-0.670,20.000,100.990,11.000,164.000
31254000,-8.620,-1930.680,167.590,-2.270,14.840,-0.990,20.000,101.000,12.000,165.000
31260000,-15.320,-14.370,-11.010,-2.700,12.330,-0.980,20.000,100.990,12.000,162.000
31266000,-5.750,-1927.810,-1.440,-2.580,-15.320,-0.150,20.000,100.990,13.000,160.000
31272000,-12.930,-0.480,159.450,-2.580,14.370,-0.640,20.000,101.000,12.000,160.000
31278000,-9.100,-3.830,157.540,-2.620,13.650,-0.520,20.000,101.000,15.000,159.000
31284000,-169.030,-1922.540,-11.010,-2.230,10.410,-0.520,20.000,101.000,255.000,145.000
31290000,-11.010,-8.620,-4.310,-2.590,10.890,-0.440,20.600,101.000,10.000,176.000
31296000,-13.410,-1927.330,-12.450,-2.380,12.810,-0.580,20.200,100.990,11.000,175.000
31302000,-140.780,-1921.590,-6.700,-2.930,15.080,-0.820,20.200,100.990,11.000,164.000
31308000,-170.950,-1927.330,198.720,-3.110,14.600,-0.720,20.100,101.000,11.000,165.000
31314000,-11.970,-1918.230,-6.220,-2.410,9.460,-0.610,20.100,100.990,9.000,167.000
31320000,-5.270,-1928.290,-8.140,-2.400,12.690,-0.720,20.100,100.990,9.000,168.000
31326000,-169.990,-1930.210,197.280,-2.660,11.610,-0.580,20.100,100.990,9.000,168.000
31332000,-7.660,-1930.680,221.220,-2.410,14.130,-0.520,20.100,100.990,12.000,168.000
31338000,-170.470,-1920.150,222.180,-2.580,14.480,-0.670,20.000,100.990,9.000,167.000
31344000,-171.900,-0.960,-10.060,-2.470,12.210,-0.610,20.100,100.990,9.000,167.000
31350000,-2.870,-0.480,187.710,-2.530,13.890,-0.760,20.100,100.990,7.000,168.000
31356000,-13.890,-0.480,-0.960,-2.460,10.300,-0.520,20.100,100.990,11.000,167.000
31362000,-147.000,-1926.370,-0.480,-2.700,12.690,-0.810,20.100,101.000,10.000,166.000
31368000,-13.890,-1930.210,198.720,-2.780,13.770,-0.470,20.100,101.000,9.000,167.000
31374000,-7.660,-1926.370,215.000,-2.640,11.610,-0.490,20.100,101.000,9.000,167.000
31380000,-9.100,-0.480,192.490,-2.410,11.850,-0.580,20.100,100.990,9.000,167.000
31386000,-4.790,-1923.500,-13.410,-2.960,14.250,-0.760,20.100,100.990,11.000,167.000
31392000,-14.370,-1925.420,216.440,-2.620,14.370,-0.720,20.100,100.990,9.000,167.000
31398000,-151.790,-1923.980,-6.220,-2.380,12.810,-0.580,20.000,100.990,10.000,168.000
31404000,-13.410,-1926.370,-3.350,-2.610,10.770,-0.720,20.100,100.990,9.000,168.000
31410000,-175.260,-1924.460,-7.660,-2.660,12.810,-0.580,20.100,100.990,11.000,167.000
31416000,-2.870,-1924.460,226.010,-2.440,12.810,-0.930,20.100,101.000,10.000,168.000
31422000,-10.530,-1928.770,217.390,-2.790,13.170,-0.730,20.100,100.990,9.000,167.000
31428000,-148.920,-1923.500,-11.970,-2.320,12.210,-0.690,20.100,100.990,10.000,167.000
31434000,-6.700,-2.390,216.440,-2.560,12.450,-0.520,20.100,100.990,10.000,168.000
31440000,-11.970,-1920.630,225.050,-2.690,13.170,-0.760,20.100,100.990,9.000,167.000
31446000,-7.660,-1.920,192.490,-2.500,11.490,-0.730,20.100,100.990,9.000,167.000
31452000,-15.320,-1926.850,-9.100,-2.790,13.650,-0.690,20.100,100.990,9.000,167.000
31458000,-14.840,-1926.370,224.580,-2.320,9.100,-0.600,20.100,100.990,10.000,167.000
31464000,-13.410,-1923.020,-6.700,-2.560,14.840,-0.700,20.100,100.990,9.000,167.000
31470000,-11.970,-1924.460,-9.100,-2.440,12.090,-0.690,20.100,100.990,9.000,167.000
31476000,-10.530,-1.920,219.310,-2.560,12.570,-0.460,20.100,101.000,9.000,167.000
31482000,-1.920,-1925.420,-6.700,-2.490,12.690,-0.630,20.100,100.990,9.000,169.000
31488000,-172.380,-1925.420,-8.620,-2.230,9.820,-0.560,20.100,100.990,10.000,169.000
31494000,-5.750,-0.960,-2.390,-2.520,11.370,-0.490,20.100,100.990,10.000,167.000
31500000,-153.230,-9.100,214.520,-2.580,11.370,-0.410,20.100,100.990,10.000,168.000
31506000,-10.530,-1920.630,227.450,-2.670,11.250,-0.900,20.100,100.990,8.000,169.000
31512000,-4.310,-1930.210,-3.830,-2.690,8.500,-0.610,20.100,101.000,11.000,168.000
31518000,-8.140,-1930.210,-11.970,-2.370,13.050,-0.790,20.100,100.990,9.000,168.000
31524000,-13.410,-1926.370,215.000,-2.580,12.330,-0.630,20.100,100.990,nan,170.000
31530000,-9.580,-1927.330,193.930,-2.430,13.770,-0.980,20.100,100.990,10.000,169.000
31536000,-5.750,-1920.150,-9.100,-2.590,12.930,-0.410,20.100,101.000,9.000,169.000
31542000,-172.860,nan,nan,nan,nan,nan,nan,nan,nan,nan
31548000,-1.920,-3.830,215.960,-2.930,11.490,-0.700,20.100,100.990,10.000,168.000
31554000,-9.100,-1928.770,197.280,-2.500,15.080,-0.790,20.100,100.990,10.000,168.000
31560000,-0.480,-1923.980,226.010,-2.350,13.530,-0.630,20.100,101.000,9.000,170.000
31566000,-4.790,-1926.850,-0.480,-2.840,13.290,-0.600,20.100,100.990,10.000,169.000
31572000,-150.830,-9.100,197.760,-2.640,10.650,-0.820,20.100,100.980,11.000,169.000
31578000,-12.450,-1923.020,215.480,-2.470,12.690,-0.460,20.100,100.990,8.000,169.000
31584000,-3.830,-1922.070,-11.970,-2.550,11.850,-0.640,20.100,100.990,8.000,167.000
31590000,-152.270,-1924.940,222.660,-2.490,10.060,-0.870,20.000,100.990,11.000,169.000
31596000,-6.220,-1925.900,-7.660,-2.730,13.650,-1.070,20.100,100.990,13.000,168.000
31602000,-6.700,-1916.800,-4.790,-2.550,11.250,-0.500,20.000,100.990,9.000,169.000
31608000,-6.220,-1.920,193.930,-2.300,12.090,-0.890,20.100,100.990,10.000,169.000
31614000,-10.060,-1925.900,-5.750,-2.640,13.170,-0.630,20.100,101.000,11.000,168.000
31620000,-171.900,-13.410,216.440,-2.670,9.940,-0.490,nan,100.990,nan,nan
31626000,-13.410,-1920.630,216.910,-2.550,11.130,-0.380,20.100,100.980,10.000,169.000
31632000,-0.480,-5.270,-2.390,-2.550,8.740,-0.610,20.000,100.980,10.000,168.000
31638000,-2.390,-1920.150,-15.320,-2.410,11.970,-0.670,20.000,100.980,9.000,169.000
31644000,-5.750,-1.920,223.140,-2.290,11.250,-0.730,20.000,100.990,9.000,169.000
31650000,-4.310,-1927.330,-0.480,-2.320,12.090,-0.760,20.000,100.980,10.000,168.000
31656000,-14.840,-1923.020,-11.010,-2.350,12.930,-0.440,20.000,100.990,8.000,168.000
31662000,-2.390,-1918.230,-7.180,-2.640,10.650,-0.490,19.900,100.990,7.000,168.000
31668000,-6.220,-3.830,-14.370,-2.260,14.130,-0.460,20.000,100.990,9.000,168.000
31674000,-169.030,-1.920,224.580,-2.730,14.130,-0.270,20.000,100.990,8.000,167.000
31680000,-9.580,-3.830,217.870,-2.590,8.620,-0.430,20.000,100.980,10.000,168.000
31686000,-5.750,-1921.110,-6.700,-2.240,12.570,-0.630,20.000,100.980,9.000,169.000
31692000,-13.410,-1924.460,-12.450,-2.380,12.570,-0.580,20.000,100.980,10.000,168.000
31698000,-7.180,-1923.500,-10.060,-2.430,13.530,-0.470,20.000,100.980,nan,167.000
31704000,-11.010,-8.140,-11.010,-2.520,14.010,-0.670,20.000,100.990,9.000,168.000
31710000,-173.820,-1921.110,-9.580,-2.260,9.340,-0.720,20.000,100.970,12.000,166.000
31716000,-6.700,-1929.250,-5.750,-2.910,12.330,-0.720,20.000,100.990,11.000,167.000
31722000,-151.790,-1930.210,218.830,-2.230,14.720,-0.500,19.900,100.980,11.000,167.000
31728000,-2.870,-1928.770,-9.100,-2.400,11.250,-0.630,20.000,100.980,9.000,166.000
31734000,-11.010,-1926.370,-8.620,-2.170,12.690,-0.400,20.000,100.980,10.000,166.000
31740000,-11.970,-1925.900,221.220,-2.610,11.130,-0.490,20.000,100.980,8.000,165.000
31746000,-8.140,-8.140,196.800,-2.520,13.530,-0.920,20.000,100.970,8.000,165.000
31752000,-152.270,-5.270,-10.530,-2.240,12.810,-0.670,20.000,100.980,10.000,164.000
31758000,-5.270,-1921.590,-1.920,-2.330,12.330,-0.730,19.900,100.980,9.000,163.000
31764000,-169.030,-1929.250,218.830,-2.120,13.410,-0.520,20.000,100.960,9.000,165.000
31770000,-7.660,-1922.540,191.060,-2.490,13.050,-0.850,20.000,100.970,10.000,163.000
31776000,-4.790,-1925.900,216.910,-2.500,13.050,-0.820,20.000,100.970,9.000,163.000
31782000,-148.440,-3.350,-3.350,-2.060,13.170,-0.810,19.900,100.980,10.000,164.000
31788000,-9.580,-0.960,224.580,-2.620,14.840,-0.960,20.000,100.990,8.000,165.000
31794000,-14.840,-4.310,222.180,-2.290,11.250,-0.660,19.900,100.980,10.000,163.000
31800000,-11.970,-1921.110,-12.450,-2.620,13.050,-0.720,20.000,100.970,9.000,162.000
31806000,-173.820,-1922.540,-11.010,-2.490,9.700,-0.840,19.900,100.980,9.000,163.000
31812000,-3.830,-1930.680,-2.390,-2.550,10.770,-0.850,20.000,100.960,8.000,163.000
31818000,-12.450,-1928.290,223.620,-2.230,10.650,-0.750,19.900,100.980,11.000,163.000
31824000,-9.580,-9.580,-5.270,-2.550,12.690,-0.580,19.900,100.970,10.000,162.000
31830000,-15.320,-1928.290,214.520,-2.200,14.840,-0.610,19.900,100.960,11.000,162.000
31836000,-8.140,-1925.420,222.180,-2.380,11.370,-0.600,20.000,100.970,8.000,163.000
31842000,-147.480,-1920.150,-9.580,-2.270,14.370,-0.560,19.900,100.960,8.000,163.000
31848000,-5.270,-1926.850,-5.750,-2.720,14.010,-0.610,20.000,100.970,10.000,163.000
31854000,-2.870,-1926.370,-15.320,-2.780,12.450,-0.690,19.900,100.960,9.000,162.000
31860000,-0.960,-1925.900,192.970,-2.530,-14.840,-0.530,19.900,100.970,11.000,162.000
31866000,-4.790,-1927.810,193.450,-2.290,15.200,-0.760,19.900,100.960,8.000,161.000
31872000,-5.750,-1922.540,-8.140,-2.410,14.480,-0.550,19.900,100.960,12.000,163.000
31878000,-14.370,-14.370,-11.490,-2.290,10.410,-0.780,19.900,100.970,8.000,162.000
31884000,-3.830,-1922.070,194.890,-2.620,10.180,-0.700,19.900,100.970,11.000,162.000
31890000,-4.790,-0.960,194.410,-2.320,-15.200,-0.640,19.900,100.970,9.000,161.000
31896000,-11.010,-1.440,-8.140,-2.590,11.850,-0.440,19.900,100.960,8.000,161.000
31902000,-15.320,-1926.850,-12.930,-2.550,12.210,-0.630,19.900,100.970,9.000,161.000
31908000,-144.610,-1925.900,-1.920,-2.290,12.570,-0.660,19.900,100.970,10.000,162.000
31914000,-147.480,-1929.250,217.870,-2.440,12.810,-0.550,19.900,100.950,9.000,162.000
31920000,-6.220,-1923.980,198.240,-2.530,9.700,-0.820,19.800,100.970,11.000,162.000
31926000,-9.100,-1920.630,224.580,-2.460,13.770,-0.340,19.900,100.970,8.000,162.000
31932000,-11.010,-1921.590,-4.790,-2.820,12.690,-0.760,19.900,100.970,11.000,161.000
31938000,-169.990,-1927.810,-7.660,-2.330,10.650,-0.600,19.900,100.960,12.000,161.000
31944000,-12.930,-11.490,-9.580,-2.440,13.650,-0.370,19.900,100.960,11.000,161.000
31950000,-147.000,-0.960,196.800,-2.330,12.090,-0.440,19.900,100.960,10.000,162.000
31956000,-2.390,-1926.370,220.270,-2.720,10.530,-0.730,19.900,100.960,9.000,161.000
31962000,-170.950,-1930.680,-0.960,-2.720,15.200,-0.440,19.900,100.960,10.000,162.000
31968000,-2.390,-1924.940,197.280,-2.530,11.490,-0.630,19.900,100.970,7.000,161.000
31974000,-14.840,-1929.730,-2.870,-2.750,12.690,-0.430,19.900,100.970,12.000,161.000
31980000,-152.750,-1921.110,-5.750,-2.520,13.050,-0.670,19.900,100.960,10.000,161.000
31986000,-146.530,-1925.900,226.970,-2.590,11.610,-0.410,19.900,100.960,11.000,160.000
31992000,-2.870,-1928.290,-13.410,-2.470,12.690,-0.900,19.900,100.960,11.000,162.000
31998000,-147.960,-3.350,222.660,-2.560,10.530,-0.950,19.900,100.960,9.000,161.000
32004000,-7.180,-1926.370,-1.920,-2.730,10.650,-0.690,19.900,100.970,9.000,160.000
32010000,-2.870,-1948.400,219.310,-2.670,11.370,-0.760,19.900,100.960,9.000,160.000
32016000,-169.990,-1929.250,193.450,-2.670,12.810,-0.810,19.900,100.960,7.000,161.000
32022000,-0.960,-1925.420,-14.370,-2.520,11.490,-0.230,19.900,100.960,10.000,160.000
32028000,-12.450,-1926.850,-10.060,-2.440,13.410,-0.690,19.900,100.960,10.000,160.000
32034000,-6.700,-1.920,215.480,-2.180,10.770,-0.920,19.900,100.960,8.000,161.000
32040000,-148.440,-1923.980,-10.060,-2.470,12.690,-0.840,19.900,100.950,10.000,160.000
32046000,-13.410,-1924.940,-4.790,-2.330,11.010,-0.610,19.900,100.960,9.000,161.000
32052000,-8.140,-1923.020,-6.220,-2.550,14.370,-0.640,19.900,100.960,9.000,161.000
32058000,-12.930,-1923.980,219.310,-2.560,14.010,-0.490,19.900,100.960,10.000,161.000
32064000,-11.490,-0.480,-14.840,-2.580,11.850,-0.640,19.900,100.950,7.000,161.000
32070000,-13.890,-1921.110,-9.580,-2.400,15.200,-0.640,19.900,100.960,9.000,161.000
32076000,-7.180,-1929.250,217.870,-3.020,14.130,-0.820,19.900,100.960,11.000,160.000
32082000,-12.930,-11.010,218.830,-2.520,11.970,-0.400,19.900,100.960,12.000,160.000
32088000,-13.410,-1927.810,-7.180,-2.530,12.450,-0.670,20.000,100.960,8.000,159.000
32094000,-13.890,-1927.810,-15.320,-2.620,13.650,-0.610,19.900,100.950,11.000,158.000
32100000,-5.270,-4.310,193.930,-2.660,13.410,-0.600,19.900,100.960,11.000,158.000
32106000,-7.180,-1919.670,-8.620,-2.520,12.810,-0.470,19.900,100.950,11.000,158.000
32112000,-8.140,-1930.210,-8.140,-2.670,10.770,-0.460,19.900,100.960,10.000,156.000
32118000,-9.580,-1922.540,-11.490,-2.530,7.900,-0.790,19.900,100.960,10.000,156.000
32124000,-13.890,-1923.500,-5.750,-2.230,12.690,-0.690,19.900,100.950,9.000,155.000
32130000,-13.410,-1927.810,220.750,-2.430,12.090,-0.760,19.900,100.950,10.000,156.000
32136000,-6.220,-1924.460,-0.480,-2.460,11.730,-0.410,20.000,100.960,11.000,156.000
32142000,-9.100,-1926.850,-2.870,-2.620,12.930,-0.610,19.900,100.960,10.000,155.000
32148000,-9.580,-1928.290,-4.790,-2.300,11.130,-0.290,20.000,100.960,12.000,156.000
32154000,-172.380,-1926.370,193.450,-2.620,11.250,-0.850,19.900,100.960,11.000,153.000
32160000,-2.870,-1926.850,198.720,-2.550,13.290,-0.490,20.000,100.960,8.000,157.000
32166000,-7.180,-1925.900,-3.830,-2.660,10.410,-0.490,20.000,100.960,12.000,155.000
32172000,-1.440,-2.870,-3.830,-3.140,9.580,-0.520,20.000,100.960,11.000,153.000
32178000,-3.350,-1925.420,215.960,-2.990,13.170,-0.630,20.000,100.950,11.000,153.000
32184000,-1.440,-1926.850,-5.750,-3.140,-15.080,-0.490,20.000,100.960,11.000,153.000
32190000,-152.270,-1930.210,224.580,-2.580,14.600,-0.630,20.000,100.950,10.000,152.000
32196000,-10.530,-8.620,-11.970,-2.430,12.810,-0.470,20.000,100.950,9.000,151.000
32202000,-145.090,-1928.770,216.910,-1.300,4.550,-0.530,20.000,100.950,11.000,152.000
32208000,-1.920,-3.830,218.350,-2.850,-15.320,-0.900,20.000,100.950,10.000,152.000
32214000,-12.930,-0.480,196.800,-2.530,11.730,-0.520,20.000,100.950,9.000,151.000
32220000,-1.920,-1922.540,-8.140,-2.270,9.820,-0.660,20.000,100.950,10.000,148.000
32226000,-0.480,-1928.770,-15.320,-2.620,11.730,-0.960,20.000,100.950,10.000,147.000
32232000,-1.440,-6.220,220.270,-2.370,11.490,-0.790,19.900,100.950,9.000,147.000
32238000,-0.960,-2.390,-11.490,-2.560,12.450,-0.560,20.000,100.950,11.000,155.000
32244000,-9.580,-1922.070,194.410,-2.620,12.330,-0.810,20.000,100.950,8.000,155.000
32250000,-4.310,-3.350,-9.100,-2.610,11.610,-0.690,20.000,100.950,8.000,159.000
32256000,-2.390,-11.970,-9.100,-2.500,13.890,-0.760,20.000,100.960,8.000,158.000
32262000,-1.440,-1930.210,195.850,-2.440,10.770,-0.730,20.000,100.950,9.000,156.000
32268000,-12.930,-1927.330,217.390,-2.580,12.090,-0.550,20.000,100.960,10.000,158.000
32274000,-0.480,-1928.290,216.440,-2.350,14.600,-0.470,20.000,100.950,12.000,157.000
32280000,-4.790,-4.790,-7.180,-3.010,14.480,-1.360,20.000,100.950,10.000,158.000
32286000,-3.350,-1928.770,-4.790,-2.380,12.450,-0.440,20.000,100.960,11.000,158.000
32292000,-147.480,-3.830,-6.700,-2.350,-14.130,-0.840,20.100,100.950,10.000,158.000
32298000,-175.730,-1924.940,198.240,-2.580,13.530,-0.520,20.100,100.950,9.000,158.000
32304000,-10.060,-1920.630,-12.450,-2.370,13.530,-0.340,20.100,100.950,9.000,159.000
32310000,-5.270,-1919.670,-1.440,-2.500,9.700,-0.640,20.000,100.950,9.000,159.000
32316000,-169.510,-7.180,223.620,-2.300,12.090,-0.820,20.100,100.940,11.000,159.000
32322000,-12.450,-0.480,216.910,-2.030,12.570,-0.410,20.100,100.950,9.000,159.000
32328000,-14.370,-1.920,-9.580,-2.380,11.850,-0.270,20.100,100.940,9.000,159.000
32334000,-11.970,-1924.460,218.830,-2.460,13.530,-0.530,20.100,100.940,11.000,159.000
32340000,-149.880,-1927.330,198.240,-2.730,13.290,-0.610,20.100,100.950,10.000,159.000
32346000,-12.450,-1930.210,-2.390,-2.260,12.450,-0.700,20.100,100.950,10.000,159.000
32352000,-10.530,-1927.330,215.960,-2.320,-14.840,-0.340,20.100,100.950,9.000,158.000
32358000,-5.750,-1922.540,-10.530,-2.500,11.970,-0.760,20.100,100.950,9.000,159.000
32364000,-14.840,-1928.770,215.000,-2.620,12.330,-0.760,20.100,100.950,9.000,162.000
32370000,-13.890,-1922.070,222.180,-2.610,13.410,-0.760,20.100,100.950,10.000,159.000
32376000,-10.530,-12.450,-1.920,-2.880,11.130,-0.890,20.100,100.950,8.000,159.000
32382000,-13.410,-1930.680,221.700,-2.290,13.050,-0.850,20.100,100.950,11.000,158.000
32388000,-150.830,-1930.680,216.910,-2.470,12.450,-0.790,20.100,100.930,10.000,158.000
32394000,-9.100,-1.440,-15.320,-2.870,9.460,-0.370,20.100,100.940,9.000,158.000
32400000,-10.530,-6.220,-8.140,-2.180,13.050,-0.750,20.100,100.940,9.000,157.000
32406000,-171.900,-1923.980,196.800,-2.460,13.170,-0.320,20.100,100.940,9.000,156.000
32412000,-152.270,-1919.670,193.450,-2.260,8.620,-0.310,20.100,100.940,10.000,158.000
32418000,-3.830,-1926.370,-11.970,-2.660,11.970,-0.690,20.100,100.940,10.000,156.000
32424000,-6.700,-1926.850,-5.750,-2.410,13.050,-0.550,20.100,100.940,9.000,156.000
32430000,-2.390,-0.480,-9.100,-2.730,13.650,-0.960,20.100,100.950,8.000,158.000
32436000,-2.390,-1930.680,-1.440,-2.530,9.340,-0.530,20.100,100.940,10.000,157.000
32442000,-4.790,-1916.320,-0.960,-2.370,9.460,-0.750,20.100,100.940,10.000,156.000
32448000,-9.580,-0.960,215.000,-2.460,12.330,-0.440,20.100,100.940,9.000,156.000
32454000,-4.310,-1923.020,218.830,-2.350,12.450,-0.900,20.100,100.930,11.000,156.000
32460000,-7.180,-0.960,217.870,-2.300,11.490,-0.560,20.100,100.940,10.000,155.000
32466000,-144.130,-6.700,218.830,-2.520,13.170,-0.820,20.100,100.940,10.000,156.000
32472000,-9.100,-14.370,-4.310,-2.370,10.890,-0.460,20.100,100.940,11.000,155.000
32478000,-151.790,-1924.460,-10.060,-2.620,12.690,-0.580,20.000,100.940,9.000,154.000
32484000,-4.310,-1930.680,-4.310,-2.690,12.330,-0.750,20.100,100.940,10.000,154.000
32490000,-11.010,-1927.810,217.870,-2.530,11.490,-1.040,20.100,100.930,11.000,154.000
32496000,-153.230,-8.140,217.390,-2.590,10.650,-0.520,20.100,100.930,10.000,155.000
32502000,-150.830,-1927.810,-10.530,-2.590,10.650,-0.690,20.100,100.940,9.000,154.000
32508000,-170.470,-0.960,-7.660,-2.150,14.480,-0.350,20.100,100.930,8.000,154.000
32514000,-11.970,-6.700,214.520,-2.610,11.250,-0.840,20.100,100.930,9.000,154.000
32520000,-7.180,-1925.420,-4.790,-2.560,12.210,-0.820,20.100,100.940,10.000,154.000
32526000,-13.890,-1923.980,217.870,-2.460,11.970,-0.720,20.100,100.940,8.000,155.000
32532000,-1.440,-7.660,-12.930,-2.370,10.890,-0.870,20.100,100.950,9.000,154.000
32538000,-0.960,-1921.110,-2.390,-2.440,12.210,-0.900,20.100,100.940,9.000,154.000
32544000,-14.370,-1919.670,215.480,-2.580,13.170,-0.900,20.100,100.940,9.000,153.000
