t_ms,ax,ay,az,gx,gy,gz,temp_c,pressure_kpa,proximity,light
0,0.294,-0.161,9.774,-1.336,-0.682,-1.487,24.003,100.963,10,140
50,0.236,-0.269,9.864,0.535,0.158,-1.396,23.999,100.957,10,140
100,0.136,-0.250,9.583,-1.934,-2.763,-0.353,23.937,100.953,10,140
150,0.313,-0.218,9.510,-0.808,-0.073,0.170,23.924,100.945,10,140
200,0.179,-0.291,9.931,-1.211,-0.049,1.327,23.971,100.949,10,140
250,0.307,-0.189,9.662,0.114,2.038,-2.321,24.043,100.951,10,140
300,0.219,0.039,9.896,-1.799,0.112,0.865,23.991,100.957,10,140
350,0.286,-0.118,9.976,-1.013,0.305,-0.695,24.007,100.938,10,140
399,0.226,-0.219,9.912,1.718,-1.985,-1.192,24.033,100.930,10,140
449,0.240,-0.208,9.955,1.034,-0.491,-0.553,23.988,100.965,10,140
499,0.244,-0.232,9.848,-0.181,-0.296,-1.671,24.000,100.946,10,140
549,0.431,-0.119,9.804,1.003,-0.510,1.578,24.001,100.956,10,140
600,0.142,-0.155,9.608,-3.053,-0.457,-1.350,24.009,100.972,10,140
650,0.196,-0.270,9.831,0.740,-0.265,-0.309,24.036,100.955,10,140
700,0.173,-0.205,9.811,-1.582,0.390,-1.287,24.050,100.952,10,140
750,0.305,-0.266,9.793,-2.997,-1.697,0.544,23.895,100.958,10,140
800,0.089,-0.107,9.707,1.168,0.196,-2.305,24.064,100.964,10,140
850,0.286,-0.228,9.788,-1.463,1.648,-0.814,23.999,100.942,10,140
900,0.221,-0.346,9.955,-0.231,1.449,0.020,23.967,100.947,10,140
950,0.228,-0.195,9.762,-0.450,-2.068,-1.210,24.085,100.943,10,140
1000,0.170,-0.156,9.972,-2.181,-0.313,-0.948,23.914,100.957,10,140
1050,0.291,-0.188,9.718,0.682,-0.809,-0.214,23.947,100.938,10,140
1100,0.451,-0.256,9.841,-0.051,-0.662,-0.762,24.034,100.947,10,140
1150,0.276,-0.194,9.945,1.021,0.574,-0.845,23.933,100.959,10,140
1200,0.408,-0.213,9.870,1.172,1.247,1.382,23.980,100.965,10,140
1250,0.148,-0.095,9.865,1.310,2.819,2.227,23.945,100.933,10,140
1300,0.390,-0.316,9.805,1.260,-2.466,-3.165,24.016,100.950,10,140
1350,0.265,-0.192,9.705,-2.270,-0.250,-1.458,23.921,100.955,10,140
1400,0.287,-0.148,9.690,-0.987,-1.499,-1.330,24.013,100.942,10,140
1450,0.336,-0.156,10.045,-2.089,1.332,-0.134,24.002,100.936,10,140
1500,0.240,-0.109,9.797,0.122,-0.436,1.732,24.002,100.928,10,140
1550,0.213,-0.428,9.424,-0.795,2.000,0.071,23.944,100.941,10,140
1600,0.427,-0.178,9.812,-0.080,0.058,1.208,24.031,100.952,10,140
1650,0.171,-0.136,9.726,1.641,-1.907,-0.206,24.003,100.937,10,140
1700,0.497,-0.024,9.752,1.158,0.568,-3.920,24.016,100.949,10,140
1750,0.304,-0.323,9.775,-0.267,1.782,0.502,24.003,100.965,10,140
1800,0.229,-0.242,9.593,2.354,1.446,1.375,24.037,100.951,10,140
1850,0.320,-0.226,9.783,0.081,2.268,0.834,24.001,100.944,10,140
1900,0.219,-0.008,9.866,0.101,-0.519,-1.664,24.000,100.959,10,140
1950,0.248,-0.223,9.781,0.164,-2.390,-0.353,23.961,100.959,10,140
2000,0.204,-0.128,9.986,-0.470,-0.902,0.287,24.004,100.940,10,140
2050,0.348,0.041,9.776,-0.304,-1.567,0.479,23.942,100.939,10,140
2100,0.445,-0.303,9.934,2.287,0.389,0.830,24.102,100.948,10,140
2150,0.224,-0.355,9.812,2.219,1.439,-1.413,23.962,100.945,10,140
2200,0.329,-0.220,9.832,0.445,-0.448,-0.060,24.015,100.949,10,140
2250,0.353,0.024,9.876,0.084,-2.529,0.582,23.907,100.936,10,140
2300,0.395,-0.113,9.789,-2.565,-0.557,-1.018,24.036,100.973,10,140
2349,0.320,-0.288,9.669,-0.084,-0.265,-1.727,24.011,100.938,10,140
2399,0.425,-0.071,9.934,-0.711,0.772,-0.198,23.985,100.947,10,140
2449,0.141,-0.366,9.900,-0.287,0.325,1.503,23.918,100.942,10,140
2499,0.315,-0.150,9.762,1.544,0.316,-1.820,23.958,100.958,10,140
2549,0.349,-0.420,9.965,0.897,2.015,-0.576,23.990,100.939,10,140
2599,0.593,-0.217,9.993,-0.971,0.246,-2.507,23.986,100.960,10,140
2649,0.147,-0.070,9.846,-1.566,-0.752,-0.689,24.003,100.945,10,140
2699,0.197,-0.232,9.686,-1.934,-0.072,1.324,23.929,100.950,10,140
2749,0.218,-0.311,9.907,-0.777,2.247,-1.170,24.025,100.948,10,140
2799,0.205,-0.127,9.788,0.905,-0.071,-1.629,24.000,100.951,10,140
2849,0.407,-0.303,9.802,-2.583,0.977,-1.622,23.915,100.949,10,140
2899,0.424,-0.376,9.679,-1.115,-1.694,0.569,23.965,100.943,10,140
2949,0.363,-0.285,9.858,-1.457,-1.818,-2.753,24.099,100.947,10,140
2999,0.323,-0.200,9.825,0.075,2.862,-1.558,23.928,100.940,10,140
3049,0.137,-0.108,9.903,-1.442,-2.086,-0.532,24.076,100.922,10,140
3099,0.356,-0.323,9.929,-1.617,-0.428,-2.259,23.957,100.964,10,140
3149,0.391,-0.243,9.704,-2.841,-0.590,-0.046,24.002,100.949,10,140
3199,0.162,-0.204,9.802,1.936,2.800,-0.205,23.968,100.949,10,140
3249,0.223,-0.284,9.800,-1.565,0.909,-0.156,24.019,100.948,10,140
3299,0.209,-0.308,9.779,-0.823,0.351,-0.007,23.938,100.951,10,140
3349,0.136,-0.269,9.772,-3.113,0.137,0.226,23.999,100.946,10,140
3399,0.250,-0.311,9.775,-0.829,0.138,-1.806,24.019,100.951,10,140
3449,0.278,-0.248,9.872,-2.497,0.691,0.365,24.021,100.954,10,140
3499,0.217,-0.227,9.882,0.646,0.310,-2.271,24.034,100.962,10,140
3549,0.413,-0.169,9.623,1.414,-0.221,-3.799,24.026,100.935,10,140
3599,0.142,-0.271,9.956,-0.556,0.406,2.622,24.087,100.949,10,140
3649,0.266,-0.345,9.725,0.638,0.594,0.165,24.057,100.942,10,140
3699,0.288,-0.110,9.875,1.606,0.596,-0.464,24.026,100.940,10,140
3749,0.101,-0.128,9.800,0.463,-2.547,-0.548,23.978,100.941,10,140
3799,0.029,-0.236,9.912,0.571,-0.901,-0.022,24.045,100.922,10,140
3849,0.280,-0.132,9.887,2.551,1.703,0.469,24.023,100.958,10,140
3899,0.231,-0.201,9.913,2.936,-0.239,-0.073,24.018,100.963,10,140
3949,0.291,-0.023,9.693,-0.279,-0.297,1.180,24.060,100.935,10,140
3999,0.187,-0.156,9.729,-2.284,1.558,0.741,24.033,100.945,10,140
4049,0.415,-0.224,9.936,-1.367,-1.281,0.307,23.973,100.957,10,140
4099,0.325,-0.305,9.815,-0.527,1.374,-0.949,23.986,100.962,10,140
4149,0.558,0.039,9.814,0.328,2.300,-0.187,23.959,100.951,10,140
4199,0.347,-0.294,9.613,-2.155,0.998,-1.138,24.001,100.952,10,140
4249,0.367,-0.236,9.865,-1.335,-0.543,-1.537,24.065,100.950,10,140
4299,0.207,-0.238,9.781,1.051,-2.393,-1.556,23.990,100.975,10,140
4349,0.407,-0.209,9.890,3.086,-0.351,-0.550,24.069,100.955,10,140
4399,0.373,-0.256,10.033,2.564,0.849,1.026,23.907,100.956,10,140
4449,0.271,-0.145,9.887,-0.512,-2.536,0.552,23.972,100.947,10,140
4499,0.223,-0.236,9.535,1.825,0.380,1.667,24.108,100.950,10,140
4549,0.082,-0.301,9.665,-0.753,0.119,-3.003,24.026,100.935,10,140
4599,0.329,-0.209,9.770,-0.110,-0.810,-0.919,23.925,100.950,10,140
4649,0.511,0.037,9.962,1.059,-1.015,2.164,24.006,100.949,10,140
4699,0.260,-0.185,9.755,-0.126,-1.627,-0.560,24.123,100.949,10,140
4749,0.266,-0.133,9.890,-1.671,-0.311,1.377,24.023,100.951,10,140
4799,0.477,-0.276,9.816,-0.780,2.235,-2.928,23.976,100.945,10,140
4849,0.372,-0.125,9.971,-2.361,1.126,-0.440,23.976,100.955,10,140
4899,0.186,-0.441,9.763,-2.247,-0.973,0.557,24.025,100.966,10,140
4949,0.271,-0.377,9.718,-1.379,-1.827,0.653,23.978,100.930,10,140
4999,0.376,-0.209,9.849,0.159,0.947,0.057,24.072,100.954,10,140
5049,0.340,-0.148,9.635,-0.247,-0.389,0.311,23.942,100.966,10,140
5099,0.306,-0.339,9.606,-0.422,-0.135,-1.077,24.015,100.944,10,140
5149,0.359,-0.281,9.802,1.468,3.858,-1.511,23.987,100.942,10,140
5199,0.386,-0.331,9.750,-0.044,-1.468,-1.436,23.987,100.929,10,140
5249,0.124,-0.245,9.824,-0.279,-2.661,-0.696,24.050,100.956,10,140
5299,0.285,-0.301,9.881,-0.868,-1.754,-1.203,24.083,100.952,10,140
5349,0.431,-0.253,9.917,-0.902,-0.236,3.730,24.049,100.945,10,140
5399,0.284,-0.158,9.949,-0.734,-2.612,-0.419,24.012,100.951,10,140
5449,0.449,-0.159,9.902,-1.652,1.302,3.144,24.050,100.953,10,140
5499,0.312,0.014,9.698,-0.167,0.690,1.116,23.989,100.953,10,140
5549,0.261,-0.182,9.791,-1.712,-0.032,1.316,23.963,100.948,10,140
5599,0.372,-0.322,9.828,-1.590,1.702,3.469,24.112,100.948,10,140
5649,0.381,-0.182,9.819,2.322,-1.979,1.583,24.009,100.964,10,140
5699,0.316,-0.275,9.839,1.104,0.054,0.732,23.985,100.929,10,140
5749,0.400,-0.114,9.824,0.103,1.554,-0.686,23.976,100.948,10,140
5799,0.434,-0.359,9.947,-0.959,-1.651,1.890,24.007,100.937,10,140
5849,0.252,-0.087,9.947,-0.641,0.609,1.071,23.979,100.954,10,140
5899,0.290,-0.259,9.749,0.101,0.045,-0.848,23.991,100.961,10,140
5949,0.319,-0.092,9.948,0.883,3.406,-1.238,24.052,100.947,10,140
5999,0.513,0.004,9.577,-1.453,0.996,1.185,24.049,100.949,10,140
6049,0.348,-0.119,9.797,1.541,-3.389,0.951,23.960,100.960,10,140
6099,0.267,-0.301,9.851,-1.367,-1.369,-2.351,24.011,100.955,10,140
6149,0.415,-0.213,9.930,0.027,-0.140,0.860,24.065,100.947,10,140
6199,0.266,-0.215,9.816,-1.351,1.542,-0.601,24.036,100.942,10,140
6249,0.336,-0.150,9.757,3.031,0.557,2.665,24.060,100.943,10,140
6299,0.249,-0.145,9.814,0.074,-0.429,-2.713,24.001,100.928,10,140
6349,0.338,-0.282,9.722,-0.329,0.409,-2.148,23.925,100.939,10,140
6399,0.054,-0.310,9.994,-1.585,0.977,-2.057,24.028,100.947,10,140
6449,0.287,-0.129,10.013,0.292,0.187,-1.460,24.042,100.948,10,140
6499,0.392,-0.201,10.012,-2.974,-0.445,1.322,23.995,100.942,10,140
6549,0.263,-0.359,9.821,3.661,1.718,-1.664,23.969,100.946,10,140
6599,0.412,-0.293,9.725,1.327,1.297,-0.561,23.957,100.935,10,140
6649,0.212,-0.459,9.895,-0.945,0.722,2.802,24.072,100.938,10,140
6699,0.396,-0.060,9.719,-1.430,-0.165,-2.402,24.087,100.926,10,140
6749,0.164,-0.228,9.780,0.249,0.407,-0.320,24.070,100.929,10,140
6799,0.294,-0.280,9.822,0.331,-1.368,-0.961,24.053,100.953,10,140
6849,0.214,0.044,10.078,-2.194,0.453,3.763,24.053,100.952,10,140
6899,0.270,-0.260,9.782,-0.826,1.117,-0.597,23.992,100.938,10,140
6949,0.288,-0.301,9.785,1.563,0.549,0.757,24.032,100.951,10,140
6999,0.279,-0.232,9.896,-1.626,2.011,0.051,23.977,100.945,10,140
7049,0.215,-0.177,9.722,1.713,-1.172,-3.409,23.978,100.930,10,140
7099,0.290,-0.071,9.883,-2.006,-1.143,2.668,24.030,100.950,10,140
7149,0.418,0.093,9.959,0.209,0.532,0.926,23.984,100.939,10,140
7199,0.300,-0.308,9.799,0.144,3.512,-1.277,24.008,100.948,10,140
7249,0.346,-0.073,9.749,-1.232,-2.461,-1.389,24.041,100.950,10,140
7299,0.175,-0.240,9.810,0.756,-0.890,-0.376,23.924,100.938,10,140
7349,0.485,-0.454,9.767,0.329,-0.562,-1.212,24.012,100.950,10,140
7399,0.285,-0.417,9.789,-1.283,-0.822,0.340,24.047,100.959,10,140
7449,0.236,-0.087,9.945,1.705,2.085,-0.219,24.006,100.958,10,140
7499,0.133,-0.171,9.744,-0.553,-2.612,-1.336,24.014,100.959,10,140
7549,0.411,-0.206,9.784,-1.246,0.604,-0.371,24.045,100.968,10,140
7599,0.290,-0.372,9.705,-2.187,-1.796,1.958,24.027,100.935,10,140
7649,0.371,-0.048,9.764,-1.014,-0.506,0.427,24.047,100.962,10,140
7699,0.437,-0.057,9.967,0.992,-2.296,-0.196,24.031,100.946,10,140
7749,0.401,-0.239,9.698,2.166,0.999,0.329,24.062,100.961,10,140
7799,0.334,-0.485,9.727,-0.685,-1.476,0.298,24.075,100.945,10,140
7849,0.161,0.043,9.754,-1.849,0.357,0.639,23.980,100.958,10,140
7899,0.237,-0.305,9.828,1.156,-0.951,0.496,24.011,100.978,10,140
7949,0.211,-0.033,9.800,-0.190,1.082,1.341,24.079,100.953,10,140
7999,0.224,-0.259,9.867,0.871,2.097,0.628,24.069,100.965,10,140
8049,0.314,-0.371,9.668,-2.157,2.387,-1.271,24.078,100.956,10,140
8099,0.496,-0.078,9.795,-0.300,0.128,0.263,23.990,100.950,10,140
8149,0.484,-0.396,9.837,-1.360,0.281,1.260,24.013,100.958,10,140
8199,0.107,-0.066,9.736,0.934,0.274,-3.878,23.979,100.952,10,140
8249,0.477,-0.162,9.837,-2.119,2.147,2.711,24.018,100.948,10,140
8299,0.104,-0.092,10.125,1.076,1.896,0.813,23.967,100.963,10,140
8349,0.149,-0.221,9.839,1.324,0.624,0.580,23.979,100.937,10,140
8399,0.301,-0.280,9.653,-1.899,-0.735,-2.779,23.949,100.934,10,140
8449,0.316,-0.148,10.043,-2.246,-1.019,1.369,24.006,100.947,10,140
8499,0.495,-0.236,9.671,-1.975,0.504,0.458,23.948,100.940,10,140
8549,0.357,-0.128,9.731,0.933,0.858,-2.675,24.001,100.954,10,140
8599,0.227,-0.448,9.773,1.128,2.371,-3.286,24.148,100.939,10,140
8649,0.407,-0.051,9.922,0.224,-1.742,0.940,23.982,100.925,10,140
8699,0.627,-0.113,10.021,-1.367,2.201,2.385,24.095,100.950,10,140
8749,0.153,-0.217,9.547,-2.553,0.138,-1.487,24.009,100.949,10,140
8799,0.521,-0.043,9.801,1.813,-1.170,-0.505,24.063,100.938,10,140
8849,0.261,-0.352,9.820,2.449,-1.128,0.339,23.973,100.939,10,140
8899,0.149,-0.025,10.085,0.725,-1.074,1.057,24.001,100.958,10,140
8949,0.328,-0.163,9.878,-0.869,-0.607,-2.582,23.996,100.936,10,140
8999,0.277,-0.309,9.819,0.680,-2.130,-1.220,23.971,100.957,10,140
9049,0.495,-0.096,9.766,2.198,-2.271,2.249,23.985,100.922,10,140
9099,0.606,-0.010,9.685,0.254,-0.322,0.153,23.944,100.943,10,140
9149,0.349,-0.170,9.948,0.120,3.524,-1.074,24.031,100.931,10,140
9199,0.147,-0.040,9.696,0.796,-0.093,-1.567,24.001,100.945,10,140
9249,0.237,-0.107,9.883,-0.866,-1.361,0.424,24.013,100.960,10,140
9299,0.607,-0.097,9.803,-0.258,-1.285,-1.360,23.968,100.946,10,140
9349,0.244,-0.109,9.760,-0.296,-1.827,2.467,24.044,100.968,10,140
9399,0.388,-0.021,9.777,1.076,4.058,-1.835,24.078,100.967,10,140
9450,0.344,-0.106,9.957,-1.005,0.626,-1.332,23.984,100.944,10,140
9500,0.277,-0.179,9.861,-2.176,3.040,1.775,24.056,100.946,10,140
9550,0.283,-0.130,9.856,-2.582,1.139,4.482,23.924,100.960,10,140
9600,0.339,-0.210,9.972,-1.820,0.251,2.253,24.009,100.946,10,140
9650,0.308,-0.250,9.994,-1.398,1.345,-1.930,24.054,100.949,10,140
9700,-0.018,-0.197,9.678,-0.685,2.372,-1.723,23.965,100.965,10,140
9750,0.308,-0.010,9.846,-1.361,-0.102,1.896,24.068,100.950,10,140
9800,0.300,-0.210,9.737,2.979,0.011,-1.744,23.995,100.957,10,140
9850,0.372,-0.213,9.726,0.037,-2.581,-2.008,24.061,100.945,10,140
9900,0.340,-0.049,9.885,0.032,3.282,1.030,24.002,100.958,10,140
9950,0.344,-0.300,9.815,-0.254,-3.032,-0.266,24.005,100.945,10,140
10000,0.095,-0.239,9.802,0.157,-1.751,0.975,23.958,100.948,10,140
10050,0.452,-0.280,9.745,1.655,-0.592,-0.458,24.031,100.961,10,140
10100,0.028,-0.296,9.685,-1.672,-1.317,-1.292,24.036,100.941,10,140
10150,0.309,-0.148,9.719,0.201,2.516,0.495,23.988,100.949,10,140
10200,0.184,-0.164,9.910,-1.257,-0.321,1.706,23.995,100.952,10,140
10250,0.171,-0.295,9.745,3.264,-0.614,-0.795,23.992,100.948,10,140
10300,0.371,-0.174,10.049,0.321,2.171,0.415,24.051,100.936,10,140
10350,0.279,-0.204,9.778,-3.229,1.321,-0.581,23.999,100.947,10,140
10400,0.267,-0.148,9.657,-1.397,0.436,0.218,24.002,100.944,10,140
10450,0.196,-0.203,9.946,-1.587,2.285,1.266,23.998,100.958,10,140
10500,0.122,-0.400,9.655,-0.615,-0.488,-0.773,24.026,100.929,10,140
10550,0.352,-0.363,9.729,-0.619,-1.734,-2.056,23.971,100.950,10,140
10600,0.364,-0.130,9.690,-1.187,-1.381,0.675,23.919,100.962,10,140
10650,0.237,-0.288,9.847,1.549,0.514,1.579,24.028,100.962,10,140
10700,0.441,-0.208,9.976,0.247,0.130,-1.382,24.007,100.958,10,140
10750,0.140,-0.120,9.848,0.416,-3.310,-0.155,24.054,100.942,10,140
10800,0.305,-0.476,9.886,-0.994,1.307,-2.764,24.056,100.948,10,140
10850,0.389,-0.305,9.734,3.364,-1.245,-1.059,24.008,100.940,10,140
10900,0.434,0.007,9.724,-2.589,1.758,1.663,24.063,100.962,10,140
10950,0.192,-0.216,9.644,-2.127,1.472,-1.008,24.136,100.951,10,140
11000,0.219,-0.102,10.019,0.729,-1.826,0.557,24.091,100.945,10,140
11050,0.203,-0.077,9.823,-1.654,-0.570,-1.133,24.037,100.951,10,140
11100,0.430,-0.113,9.623,0.610,1.345,0.684,24.074,100.945,10,140
11150,0.182,-0.087,9.681,-3.239,1.538,-1.086,24.007,100.936,10,140
11200,0.138,-0.332,9.764,0.555,-3.447,1.128,23.963,100.939,10,140
11250,0.374,-0.205,9.626,2.767,-1.291,0.371,24.032,100.964,10,140
11300,0.241,-0.078,9.719,1.683,-1.144,-0.543,24.117,100.953,10,140
11350,0.307,0.068,9.849,-1.224,1.102,-1.773,24.079,100.962,10,140
11400,0.227,-0.270,9.827,0.021,-1.467,0.852,23.921,100.946,10,140
11450,0.247,-0.228,9.843,-1.842,0.883,-0.270,23.990,100.936,10,140
11500,0.155,-0.154,9.693,0.096,1.593,1.549,24.101,100.947,10,140
11550,0.166,-0.076,9.843,1.686,0.017,1.793,24.065,100.957,10,140
11600,0.353,-0.149,9.834,0.339,1.485,-0.768,24.110,100.949,10,140
11650,0.410,-0.207,9.778,3.048,-0.464,-1.916,23.988,100.947,10,140
11700,0.548,-0.172,9.917,-1.502,0.529,1.007,24.113,100.943,10,140
11750,0.365,-0.161,9.686,-0.029,-0.395,-3.488,24.053,100.955,10,140
11800,0.243,-0.354,9.981,0.399,1.525,2.115,23.998,100.958,10,140
11850,0.266,-0.203,9.797,-0.002,1.671,0.186,24.016,100.947,10,140
11900,0.334,-0.301,9.747,-0.078,-0.849,-0.178,23.993,100.970,10,140
11950,0.451,-0.143,9.800,3.286,0.484,-0.130,24.039,100.953,10,140
12000,0.460,-0.198,10.054,-1.323,1.041,-1.503,24.115,100.947,10,140
12050,0.287,-0.087,9.954,-1.668,-0.519,-2.092,24.031,100.949,10,140
12100,0.253,-0.277,9.761,-1.120,0.793,2.274,23.928,100.949,10,140
12150,0.245,-0.138,9.695,-0.220,-1.559,1.045,24.029,100.948,10,140
12200,0.338,-0.225,9.624,0.894,0.432,-0.231,24.074,100.962,10,140
12250,0.166,-0.288,9.989,2.128,-1.108,-1.771,23.993,100.945,10,140
12300,0.108,-0.192,9.656,-1.816,1.374,-1.025,24.021,100.956,10,140
12350,0.390,-0.236,9.812,-1.238,2.621,0.975,23.970,100.950,10,140
12400,0.378,-0.140,10.022,2.058,-0.809,-0.134,23.961,100.952,10,140
12450,0.312,0.122,9.818,-3.140,-1.008,0.169,23.962,100.941,10,140
12500,0.251,-0.156,9.787,-1.334,1.182,-0.809,24.000,100.936,10,140
12550,0.202,-0.119,9.616,-0.107,1.077,-0.566,24.037,100.939,10,140
12600,0.448,-0.067,9.834,-2.633,-1.569,1.465,24.111,100.953,10,140
12650,0.441,-0.268,9.784,0.002,0.635,-2.293,24.072,100.963,10,140
12700,0.159,-0.356,9.848,-0.981,-3.556,1.213,24.033,100.945,10,140
12750,0.543,-0.180,9.718,0.152,-1.560,-1.143,24.045,100.944,10,140
12800,0.241,0.000,9.908,1.204,0.793,0.726,24.098,100.950,10,140
12850,0.513,-0.308,9.777,-2.068,-0.516,0.778,24.098,100.943,10,140
12900,0.295,-0.238,9.720,-1.784,0.091,-2.598,24.031,100.950,10,140
12950,0.217,-0.315,9.644,2.807,-2.013,2.337,24.056,100.946,10,140
13000,0.158,-0.073,10.010,-1.401,-0.448,1.577,24.043,100.970,10,140
13050,0.227,-0.132,9.659,3.144,-1.096,-3.312,24.020,100.949,10,140
13100,0.520,-0.236,9.805,0.890,2.379,-0.095,24.078,100.955,10,140
13150,0.259,-0.187,9.810,-1.374,1.821,-2.078,24.085,100.960,10,140
13200,0.283,-0.286,9.780,0.709,1.115,0.430,24.076,100.944,10,140
13250,0.322,-0.381,9.897,0.230,-0.623,1.742,24.061,100.922,10,140
13300,0.299,-0.367,9.932,3.734,-0.778,0.112,24.014,100.954,10,140
13350,0.370,-0.045,9.690,2.357,-1.397,0.416,24.085,100.957,10,140
13400,0.184,-0.279,9.752,-0.077,1.720,-1.938,24.050,100.956,10,140
13450,0.360,-0.141,9.985,0.732,1.285,0.845,24.117,100.931,10,140
13500,0.445,-0.227,9.774,-1.454,-2.803,-0.573,23.993,100.955,10,140
13550,0.121,-0.028,9.839,-0.372,-1.064,-1.181,23.971,100.945,10,140
13600,0.295,-0.217,9.640,-0.399,-1.340,0.240,24.120,100.956,10,140
13650,0.257,-0.387,9.640,-2.530,1.089,-1.148,24.030,100.944,10,140
13700,0.305,-0.031,9.726,-0.511,-1.210,1.312,23.976,100.939,10,140
13750,0.131,-0.362,9.862,3.854,-1.493,1.427,24.040,100.939,10,140
13800,0.262,-0.224,9.725,2.896,-2.859,0.572,24.044,100.944,10,140
13850,0.312,-0.093,9.825,0.626,1.039,-3.048,24.102,100.973,10,140
13900,0.410,-0.077,9.641,-0.178,-1.218,-0.881,24.076,100.942,10,140
13950,0.279,-0.421,9.788,0.135,-1.057,-1.080,24.122,100.938,10,140
14000,0.171,-0.291,9.948,3.152,0.498,-1.076,24.007,100.961,10,140
14050,0.187,-0.025,9.973,0.105,0.969,1.125,24.106,100.939,10,140
14100,0.433,-0.240,9.716,0.154,-0.322,-1.481,23.948,100.941,10,140
14150,0.465,0.035,9.883,1.779,-0.775,-0.116,24.042,100.939,10,140
14200,0.178,-0.185,9.769,-1.595,0.580,-0.395,24.079,100.950,10,140
14250,0.259,-0.181,9.786,-1.002,-0.603,1.124,24.061,100.963,10,140
14300,0.095,-0.242,9.758,0.258,-0.678,-0.770,24.068,100.952,10,140
14350,0.157,-0.039,9.924,-0.861,1.247,-1.103,24.085,100.948,10,140
14400,0.200,-0.240,9.717,0.288,0.263,0.054,24.001,100.913,10,140
14450,0.305,-0.419,9.835,1.696,0.411,-0.584,24.020,100.949,10,140
14500,0.230,-0.265,9.698,1.782,-0.023,1.434,24.016,100.951,10,140
14550,0.274,-0.142,9.904,0.360,-1.011,-1.170,24.112,100.947,10,140
14600,0.260,-0.024,9.935,0.801,-0.599,3.530,24.049,100.955,10,140
14650,0.274,-0.363,9.650,0.610,0.588,-0.360,23.971,100.936,10,140
14700,0.256,-0.367,9.912,1.729,4.244,1.317,24.000,100.941,10,140
14750,-0.112,-0.266,9.786,1.452,0.917,0.883,24.040,100.957,10,140
14800,0.465,-0.321,9.753,-2.083,2.428,1.945,24.067,100.938,10,140
14850,0.315,-0.224,9.816,-0.282,0.780,-0.592,24.072,100.952,10,140
14900,0.260,-0.209,9.755,1.221,-0.407,0.442,24.010,100.935,10,140
14950,0.401,-0.321,9.887,0.630,-2.484,-1.417,24.004,100.942,10,140
15000,0.155,-0.109,9.778,0.579,-0.646,0.458,23.992,100.950,10,140
15050,0.363,-0.191,9.753,-1.630,0.251,0.517,24.017,100.942,10,140
15100,0.358,0.096,9.771,0.505,0.566,-3.850,24.036,100.943,10,140
15150,0.457,-0.226,9.715,-0.328,0.250,-0.840,24.028,100.936,10,140
15200,0.268,-0.105,10.038,1.060,0.408,1.776,24.081,100.967,10,140
15250,0.422,-0.210,9.837,0.269,0.453,0.300,23.991,100.929,10,140
15300,0.215,-0.435,9.815,0.007,-2.513,1.032,24.074,100.951,10,140
15350,0.490,0.024,9.665,1.555,0.661,0.627,24.077,100.943,10,140
15400,0.224,-0.293,9.718,-0.148,-2.178,-1.569,24.060,100.949,10,140
15450,0.339,-0.418,9.714,-0.833,0.049,-0.879,24.078,100.949,10,140
15500,0.296,-0.195,9.890,-0.707,1.684,0.690,24.039,100.950,10,140
15550,0.355,-0.077,9.918,0.564,1.315,0.178,24.094,100.950,10,140
15600,0.050,-0.039,9.819,-1.757,-0.297,-1.326,24.136,100.955,10,140
15650,0.110,-0.132,9.760,2.875,-1.579,-3.371,24.035,100.947,10,140
15700,0.245,-0.448,9.857,2.510,-2.864,1.757,24.003,100.973,10,140
15750,0.346,-0.218,9.937,0.789,-0.889,1.065,24.006,100.932,10,140
15800,0.533,-0.237,9.735,0.508,-2.339,-2.030,24.007,100.945,10,140
15850,0.303,-0.064,9.751,0.739,0.902,-1.626,24.043,100.941,10,140
15900,0.419,-0.143,9.809,-2.010,0.174,-1.151,24.067,100.949,10,140
15950,0.199,-0.087,9.892,-0.890,1.743,-0.448,24.016,100.951,10,140
16000,0.206,-0.248,9.788,2.295,2.249,-0.388,24.113,100.950,10,140
16050,0.339,-0.092,9.841,3.623,0.365,-1.796,24.097,100.946,10,140
16100,0.258,-0.548,9.924,1.228,1.199,1.468,24.117,100.950,10,140
16150,0.405,-0.284,9.765,1.585,0.587,-2.000,24.050,100.948,10,140
16200,0.198,-0.145,9.759,-2.356,-1.667,2.654,23.957,100.952,10,140
16250,0.366,-0.121,9.662,-0.482,0.211,1.200,24.000,100.938,10,140
16300,0.412,-0.066,9.850,-0.913,0.610,0.164,24.074,100.938,10,140
16350,0.308,-0.215,9.676,0.323,0.052,-0.616,24.053,100.936,10,140
16400,0.288,-0.145,9.840,1.615,-1.802,-2.262,24.045,100.955,10,140
16450,0.544,-0.124,9.704,1.209,-1.268,-2.229,24.163,100.953,10,140
16500,0.378,-0.130,10.020,0.426,1.827,-1.541,23.963,100.964,10,140
16550,0.468,-0.136,9.833,0.249,-1.032,2.308,24.066,100.955,10,140
16600,0.338,-0.073,9.866,1.118,-1.753,0.765,24.143,100.945,10,140
16650,0.279,-0.091,9.919,0.937,-2.426,0.753,23.974,100.942,10,140
16700,0.359,-0.231,9.902,4.722,1.166,1.084,23.989,100.944,10,140
16750,0.169,-0.259,9.678,-0.990,-0.313,-1.501,23.963,100.936,10,140
16800,0.348,-0.189,9.927,1.567,-0.511,1.005,23.962,100.973,10,140
16850,0.435,-0.221,9.670,0.570,-2.805,-1.169,24.071,100.951,10,140
16900,0.236,-0.084,9.684,0.427,-0.747,-1.271,24.057,100.940,10,140
16950,0.518,-0.265,10.041,-1.641,0.909,-1.799,23.967,100.952,10,140
17000,0.374,-0.346,9.946,-1.196,0.197,0.570,24.064,100.932,10,140
17050,0.485,-0.130,9.757,-1.536,-2.541,-2.042,24.061,100.947,10,140
17100,0.161,-0.258,9.991,-0.496,-0.877,2.026,24.057,100.950,10,140
17150,0.223,-0.379,9.669,-0.721,-0.329,0.534,24.062,100.952,10,140
17200,0.320,-0.315,9.553,-0.781,-1.431,-0.979,24.021,100.938,10,140
17250,0.164,-0.208,9.820,-0.984,0.747,-0.329,23.984,100.950,10,140
17300,0.516,-0.276,9.944,2.067,2.247,-1.234,24.135,100.951,10,140
17350,0.264,-0.223,9.877,0.077,-0.265,1.925,23.999,100.940,10,140
17400,0.388,-0.113,9.935,-1.608,1.622,0.723,24.123,100.938,10,140
17450,0.320,-0.229,9.620,-1.072,1.691,-0.703,23.999,100.959,10,140
17500,0.411,-0.080,9.714,-0.087,1.546,-0.984,23.998,100.958,10,140
17550,0.478,-0.332,9.501,-2.175,-1.519,-0.207,24.066,100.949,10,140
17600,0.212,-0.178,9.693,-0.070,-0.962,4.021,24.076,100.942,10,140
17650,0.177,-0.248,9.613,-1.096,-1.107,1.326,24.014,100.942,10,140
17700,0.136,-0.335,9.799,-0.323,1.701,-0.944,24.088,100.953,10,140
17750,0.294,-0.432,9.655,1.112,2.097,0.310,24.074,100.946,10,140
17800,0.250,-0.274,9.921,0.514,-0.351,-0.493,24.063,100.953,10,140
17850,0.196,0.006,9.837,0.016,2.216,1.536,24.031,100.955,10,140
17900,0.168,-0.272,9.541,1.831,-2.848,1.022,23.994,100.940,10,140
17950,0.271,-0.165,9.879,2.657,0.538,1.322,24.006,100.957,10,140
18000,0.312,-0.251,9.795,-0.093,0.287,0.602,24.011,100.943,10,140
18050,0.382,-0.396,9.734,2.329,-4.061,-1.040,24.070,100.933,10,140
18100,0.600,-0.501,9.976,2.336,1.375,-0.332,24.054,100.941,10,140
18150,0.389,-0.328,9.774,1.494,-1.671,-0.546,24.045,100.937,10,140
18200,0.431,-0.156,9.628,-0.070,-1.163,-0.986,24.040,100.943,10,140
18250,0.408,-0.279,9.922,-0.066,1.284,-0.812,24.011,100.938,10,140
18300,0.362,-0.086,10.056,1.936,0.375,-0.316,24.056,100.950,10,140
18350,0.466,-0.085,9.708,-1.031,2.051,0.462,24.025,100.962,10,140
18400,0.249,-0.229,9.752,-2.943,1.296,-1.814,24.008,100.943,10,140
18450,0.380,-0.204,9.808,-2.519,-0.131,-2.214,24.052,100.954,10,140
18500,0.292,0.044,9.869,0.894,0.213,-0.289,24.085,100.961,10,140
18550,0.141,-0.072,9.867,1.441,0.699,-1.866,23.978,100.968,10,140
18600,0.324,-0.363,9.848,-0.543,-2.765,-3.435,23.957,100.953,10,140
18650,0.289,-0.225,9.840,0.902,-3.154,-0.452,23.996,100.938,10,140
18700,0.230,-0.211,9.775,-2.182,-0.725,3.024,23.985,100.933,10,140
18750,0.327,-0.126,9.861,-1.680,1.497,-1.178,23.981,100.944,10,140
18800,0.281,-0.112,9.880,-0.034,1.399,0.122,24.082,100.936,10,140
18850,0.109,-0.105,9.643,-0.452,-0.147,-0.732,24.015,100.964,10,140
18900,-0.003,-0.092,10.077,0.035,-0.028,1.090,24.129,100.938,10,140
18950,0.305,-0.218,9.872,0.239,0.989,-0.632,24.040,100.943,10,140
19000,0.216,-0.213,9.790,-1.759,2.355,-0.203,23.969,100.961,10,140
19050,0.206,-0.136,9.805,0.376,0.257,-0.863,24.040,100.970,10,140
19100,0.031,-0.188,9.858,-1.578,-2.056,3.238,24.020,100.971,10,140
19150,0.357,-0.187,9.863,0.953,1.769,0.654,24.046,100.952,10,140
19200,0.453,-0.100,9.689,-0.953,0.496,-0.934,24.020,100.940,10,140
19250,0.263,-0.146,9.924,0.014,3.112,-0.115,24.198,100.960,10,140
19300,0.353,-0.255,9.474,-0.233,0.267,2.884,23.970,100.969,10,140
19350,0.265,-0.111,9.508,0.209,-0.516,1.024,24.043,100.939,10,140
19400,0.406,-0.114,9.877,1.513,1.651,-0.033,23.971,100.936,10,140
19450,0.453,-0.113,9.819,-0.652,0.047,0.037,24.022,100.943,10,140
19500,0.549,-0.169,9.735,-1.953,-1.089,1.080,24.077,100.948,10,140
19550,0.300,-0.232,9.676,1.953,0.559,3.715,24.001,100.949,10,140
19600,0.398,-0.225,9.643,-1.423,0.151,0.515,24.034,100.960,10,140
19650,0.411,-0.158,9.810,-0.379,0.827,1.379,24.042,100.954,10,140
19700,0.256,-0.362,9.689,1.149,0.671,2.385,24.042,100.959,10,140
19750,0.450,-0.079,9.735,-0.277,0.195,-1.479,24.063,100.960,10,140
19800,0.238,0.036,9.772,-0.304,-0.357,-1.062,24.060,100.950,10,140
19850,0.490,-0.125,9.870,-0.332,-2.121,-0.134,23.997,100.960,10,140
19900,0.291,-0.000,9.893,1.253,0.346,0.313,24.072,100.959,10,140
19950,0.211,-0.138,10.115,-0.135,-0.383,-1.039,23.967,100.962,10,140
20000,0.301,-0.161,10.024,3.764,-1.333,1.582,24.071,100.954,10,140
20050,0.351,-0.199,9.994,0.925,0.521,1.874,24.085,100.955,10,140
20100,0.333,0.011,9.867,-0.131,-1.282,-0.512,23.988,100.951,10,140
20150,0.325,-0.437,9.809,0.978,0.254,-1.428,24.104,100.943,10,140
20200,0.150,-0.323,9.805,1.478,1.752,0.318,23.981,100.943,10,140
20250,0.189,-0.217,9.598,0.169,0.970,-0.222,24.064,100.941,10,140
20300,0.123,-0.271,9.943,1.546,-0.684,1.807,24.024,100.965,10,140
20350,0.351,-0.249,9.900,-1.161,-1.403,-2.176,24.054,100.949,10,140
20400,0.285,-0.244,9.976,-0.635,-1.085,1.869,24.112,100.953,10,140
20450,0.089,-0.267,9.879,0.027,2.331,-2.050,24.075,100.944,10,140
20500,0.450,-0.205,9.928,-0.971,-2.114,-1.666,24.011,100.940,10,140
20550,0.435,-0.039,9.839,-1.551,-0.178,-1.029,24.114,100.953,10,140
20600,0.352,-0.243,9.570,-1.157,-1.675,0.555,24.046,100.942,10,140
20650,0.248,-0.012,9.694,-1.377,-0.343,-1.049,24.020,100.955,10,140
20700,0.498,-0.406,9.805,0.062,-0.126,-0.281,24.024,100.960,10,140
20750,0.239,-0.211,9.807,0.161,-0.256,1.499,24.041,100.952,10,140
20800,0.288,-0.314,9.709,-1.575,0.289,-1.070,23.989,100.952,10,140
20850,0.356,-0.403,10.005,0.048,-0.158,1.600,24.045,100.944,10,140
20900,0.552,-0.323,9.795,1.271,-1.604,-0.153,24.061,100.974,10,140
20950,0.189,-0.202,9.884,0.122,-1.804,0.612,24.047,100.954,10,140
21000,0.427,-0.077,9.855,0.466,-1.648,-0.201,24.053,100.946,10,140
21050,0.306,-0.293,9.987,3.228,-0.584,0.601,24.030,100.963,10,140
21100,0.345,-0.187,9.780,0.189,-1.501,1.013,24.007,100.955,10,140
21150,0.309,-0.067,9.805,1.535,-1.384,0.914,24.031,100.952,10,140
21200,0.303,-0.086,9.569,0.485,-2.242,1.810,23.944,100.940,10,140
21250,0.097,-0.003,9.655,0.171,-0.804,-2.700,24.026,100.957,10,140
21300,0.273,-0.085,9.764,0.010,-0.577,0.515,24.138,100.954,10,140
21350,0.317,-0.269,9.718,2.196,-1.668,-1.370,24.038,100.946,10,140
21400,0.524,-0.475,9.849,1.069,-1.681,-0.967,24.064,100.966,10,140
21450,0.186,-0.382,9.921,2.286,-0.503,-3.321,24.115,100.948,10,140
21500,0.426,-0.201,9.762,-0.678,2.210,2.152,23.936,100.941,10,140
21550,0.503,-0.239,9.647,0.007,-0.163,-0.146,24.019,100.947,10,140
21600,0.241,-0.157,9.711,-0.434,-0.216,1.959,24.062,100.949,10,140
21650,0.357,-0.148,9.935,0.760,2.691,2.017,24.041,100.946,10,140
21700,0.398,-0.135,9.796,-2.215,-2.749,0.522,24.082,100.958,10,140
21750,0.143,-0.074,9.744,0.583,0.625,-1.204,24.014,100.929,10,140
21800,0.186,-0.408,9.858,0.092,1.371,0.535,24.012,100.953,10,140
21850,0.248,-0.124,9.844,-1.483,0.003,0.083,24.028,100.959,10,140
21900,0.496,-0.239,9.765,-3.372,-0.193,-0.654,23.936,100.953,10,140
21950,0.364,-0.283,9.763,-1.450,1.144,-2.276,24.028,100.970,10,140
22000,0.300,-0.141,9.789,-1.762,-0.049,0.610,23.993,100.953,10,140
22050,0.441,-0.070,9.620,-1.463,-2.421,1.607,24.075,100.957,10,140
22100,0.191,-0.333,9.816,0.151,-1.281,0.213,24.076,100.952,10,140
22150,0.172,-0.445,9.776,0.247,-0.390,-0.643,24.010,100.957,10,140
22200,0.288,-0.182,9.692,-0.931,0.246,-1.508,23.981,100.947,10,140
22250,0.436,-0.174,9.978,-0.197,-0.465,-2.088,24.016,100.964,10,140
22300,0.333,-0.110,9.890,-0.014,-0.307,0.179,24.078,100.955,10,140
22350,0.352,-0.178,9.716,-0.392,-1.412,1.507,23.940,100.948,10,140
22400,0.575,-0.236,9.673,-0.027,1.934,-0.241,24.075,100.951,10,140
22450,0.250,0.175,9.815,-0.806,-0.735,0.571,24.065,100.958,10,140
22500,0.311,-0.365,9.869,-0.463,-0.429,-2.224,24.016,100.943,10,140
22550,0.290,-0.367,9.813,0.187,-1.680,-0.937,24.002,100.959,10,140
22600,-0.003,-0.237,9.611,-0.648,1.270,-0.946,24.052,100.942,10,140
22650,0.522,-0.089,9.939,-1.992,-1.652,1.620,24.036,100.947,10,140
22700,0.333,-0.344,9.898,0.027,0.719,-1.006,24.071,100.943,10,140
22750,0.407,-0.063,9.914,0.775,0.951,-4.059,24.087,100.947,10,140
22800,0.305,-0.230,9.643,-0.808,0.988,2.126,24.014,100.941,10,140
22850,0.465,-0.300,10.051,0.076,-1.325,1.477,24.130,100.936,10,140
22900,0.478,-0.229,9.982,-0.571,-2.366,0.753,24.092,100.971,10,140
22950,0.497,-0.114,9.779,-0.781,-0.442,-1.246,24.032,100.925,10,140
23000,0.315,-0.200,10.109,1.138,-0.720,0.847,23.985,100.944,10,140
23050,0.074,-0.027,9.876,-1.763,-0.091,1.425,24.071,100.954,10,140
23100,0.193,-0.271,9.818,1.380,-1.243,-1.682,24.103,100.941,10,140
23150,0.421,-0.168,9.910,2.617,1.033,1.164,24.000,100.943,10,140
23200,0.370,-0.016,9.970,3.475,0.466,0.304,24.097,100.950,10,140
23250,0.287,-0.319,9.923,-1.608,0.768,-2.129,24.101,100.940,10,140
23300,0.393,-0.383,9.755,1.768,-1.208,0.101,24.023,100.927,10,140
23350,0.330,-0.145,9.676,0.861,-1.194,-1.505,24.047,100.943,10,140
23400,0.564,-0.379,9.894,1.483,-2.969,-2.599,24.075,100.945,10,140
23450,0.339,-0.062,9.763,-1.596,-4.094,0.307,24.000,100.953,10,140
23500,0.321,-0.359,10.010,1.625,1.272,-1.777,24.027,100.945,10,140
23550,0.245,-0.328,9.858,0.344,0.548,-0.759,24.112,100.952,10,140
23600,-0.028,-0.271,9.800,1.448,-0.451,-0.375,24.014,100.957,10,140
23650,0.242,-0.267,9.719,0.835,-0.799,-2.514,24.078,100.943,10,140
23700,0.336,-0.152,9.948,1.567,-0.863,-0.250,23.983,100.967,10,140
23750,0.346,-0.032,9.769,-3.074,2.298,0.140,24.054,100.951,10,140
23800,0.370,-0.133,9.619,1.630,-0.793,-0.701,24.134,100.959,10,140
23850,0.254,-0.415,9.826,0.808,-0.121,-1.869,24.008,100.937,10,140
23900,0.320,-0.100,9.927,-1.098,0.353,0.831,24.022,100.949,10,140
23950,0.544,-0.172,9.911,-0.652,0.063,-2.571,24.047,100.962,10,140
24000,0.541,-0.055,9.887,0.079,-0.900,-0.240,24.079,100.942,10,140
24050,0.404,-0.312,9.597,-1.518,-2.498,-2.059,24.105,100.948,10,140
24100,0.320,-0.060,9.955,-0.757,1.993,0.577,24.048,100.954,10,140
24150,0.126,-0.289,9.794,0.915,-0.558,-0.191,24.097,100.964,10,140
24200,0.384,-0.047,9.759,-0.460,0.478,-0.452,24.023,100.967,10,140
24250,0.271,-0.310,9.864,2.754,0.121,1.847,24.027,100.945,10,140
24300,0.213,-0.213,10.023,-1.733,2.456,-1.513,24.037,100.958,10,140
24350,0.368,-0.163,9.613,0.543,-1.534,3.853,24.038,100.952,10,140
24400,0.159,-0.252,9.655,1.472,-0.393,0.844,24.015,100.945,10,140
24450,0.446,-0.310,9.595,0.609,-1.712,-0.659,24.094,100.942,10,140
24500,0.398,-0.276,9.982,1.988,-0.707,-0.320,24.007,100.952,10,140
24550,0.429,-0.366,9.915,-1.986,-1.290,-2.682,24.154,100.951,10,140
24600,0.323,-0.276,9.932,-3.155,0.040,3.310,24.030,100.950,10,140
24650,0.373,-0.292,9.809,1.441,0.292,0.556,24.032,100.953,10,140
24700,0.301,-0.025,9.892,-0.366,-3.670,1.074,24.087,100.941,10,140
24750,0.059,-0.331,9.916,-1.597,-0.689,0.331,24.111,100.950,10,140
24800,0.282,-0.261,9.999,1.599,-0.143,-2.095,24.010,100.956,10,140
24850,0.209,-0.091,9.849,0.439,0.980,0.748,24.007,100.947,10,140
24900,0.570,-0.338,9.751,1.599,-0.239,-1.218,23.984,100.955,10,140
24950,0.414,-0.031,9.813,1.567,-1.549,0.252,24.016,100.952,10,140
25000,0.383,-0.070,9.690,1.901,-0.712,-1.539,24.041,100.935,10,140
25050,0.295,-0.162,9.783,0.804,-0.472,0.006,23.978,100.950,10,140
25100,0.194,-0.249,9.796,0.286,-2.470,-2.345,24.035,100.955,10,140
25150,0.337,-0.091,9.960,0.745,-0.030,-1.547,24.003,100.945,10,140
25200,0.326,-0.170,9.807,-0.229,0.946,0.312,24.065,100.953,10,140
25250,0.230,-0.317,9.864,0.625,-0.330,-0.624,24.164,100.942,10,140
25300,0.269,-0.165,9.671,0.176,2.697,1.401,24.082,100.956,10,140
25350,0.307,-0.083,9.788,-0.634,0.153,1.359,24.067,100.957,10,140
25400,0.056,-0.056,10.082,2.002,-0.476,-1.273,24.065,100.940,10,140
25450,0.380,-0.258,9.920,2.043,-3.048,0.439,24.016,100.936,10,140
25500,0.222,-0.222,9.928,-2.282,1.576,3.027,24.081,100.955,10,140
25550,0.293,-0.334,9.870,0.576,1.097,3.853,24.087,100.954,10,140
25600,0.478,-0.354,9.672,-0.563,-0.982,1.041,24.035,100.967,10,140
25650,0.473,-0.106,9.761,0.925,1.217,-1.600,24.069,100.957,10,140
25700,0.320,-0.011,9.950,-1.238,0.187,-1.253,24.080,100.941,10,140
25750,0.403,-0.150,9.921,-0.218,-2.184,2.649,24.043,100.964,10,140
25800,0.345,-0.117,10.022,0.510,2.100,-2.226,24.095,100.948,10,140
25850,0.278,-0.195,9.847,2.486,-2.781,0.066,24.016,100.962,10,140
25900,0.244,-0.142,9.760,1.002,1.522,-0.596,24.054,100.936,10,140
25950,0.330,-0.095,9.741,1.681,-3.110,-2.777,23.982,100.945,10,140
26000,0.296,-0.205,9.799,1.085,-0.708,-1.895,23.990,100.971,10,140
26050,0.017,-0.217,9.978,0.725,-1.244,0.003,24.095,100.962,10,140
26100,0.188,-0.107,9.836,1.657,2.086,-0.515,23.980,100.954,10,140
26150,0.503,-0.115,9.834,3.602,-1.560,1.354,24.024,100.950,10,140
26200,0.305,-0.018,9.697,-0.803,-2.389,0.731,24.029,100.954,10,140
26250,0.168,-0.238,9.929,-0.261,0.938,0.792,24.035,100.934,10,140
26300,0.410,-0.176,9.922,-3.019,-2.482,-3.214,24.009,100.960,10,140
26350,0.361,-0.200,9.822,1.141,-0.453,0.594,24.060,100.928,10,140
26400,0.249,-0.036,9.760,-0.215,-0.910,-0.727,24.109,100.947,10,140
26450,0.174,-0.562,9.739,-2.950,-2.736,1.193,24.088,100.931,10,140
26500,0.394,-0.142,9.714,1.102,-2.440,-1.807,23.981,100.939,10,140
26550,0.398,-0.353,9.671,-1.428,0.293,-0.510,24.096,100.943,10,140
26600,0.142,-0.255,9.811,-1.401,0.411,2.717,24.024,100.950,10,140
26650,0.452,-0.274,9.706,-1.658,0.578,0.751,24.045,100.950,10,140
26700,0.442,-0.096,9.640,-0.044,0.126,1.047,24.041,100.943,10,140
26750,0.237,-0.408,9.801,-0.936,0.658,-1.583,24.030,100.940,10,140
26800,0.165,-0.118,9.748,0.615,-1.731,0.092,23.967,100.945,10,140
26850,0.231,-0.132,9.823,-0.323,1.195,0.225,24.078,100.957,10,140
26900,0.281,-0.236,9.840,-0.690,0.515,1.594,24.094,100.946,10,140
26950,0.138,-0.208,9.787,1.588,-0.642,-0.382,24.088,100.945,10,140
27000,0.270,-0.000,9.976,0.873,0.332,-1.521,24.080,100.950,10,140
27050,0.315,-0.263,9.800,-0.347,0.401,2.067,24.070,100.933,10,140
27100,0.175,-0.388,9.708,0.765,0.529,-0.968,24.065,100.942,10,140
27150,0.122,-0.367,9.700,2.054,-2.079,1.789,24.118,100.948,10,140
27200,0.283,-0.274,9.798,0.911,-0.061,1.417,24.111,100.953,10,140
27250,0.327,-0.209,9.841,-1.745,0.530,0.230,24.009,100.971,10,140
27300,0.174,-0.304,9.833,-2.978,-1.263,-2.361,24.004,100.948,10,140
27350,0.325,-0.073,9.895,1.694,0.801,-0.781,24.108,100.945,10,140
27400,0.216,-0.023,9.893,0.247,1.045,1.234,23.984,100.949,10,140
27450,0.149,-0.188,9.721,1.953,0.694,-1.299,24.051,100.937,10,140
27500,0.292,-0.138,9.831,-2.975,-0.586,0.679,24.067,100.961,10,140
27550,0.136,-0.141,9.723,0.208,0.523,0.944,24.023,100.951,10,140
27600,0.150,-0.369,9.865,-0.167,-2.513,-1.361,24.053,100.965,10,140
27650,0.410,-0.109,9.590,-0.233,0.628,0.503,24.073,100.947,10,140
27700,0.494,-0.029,9.789,-1.557,2.992,-0.916,24.112,100.969,10,140
27750,0.176,-0.169,9.759,0.684,0.393,2.830,24.082,100.949,10,140
27800,0.420,-0.235,9.757,3.269,-1.319,-0.821,24.055,100.939,10,140
27850,0.039,-0.079,9.707,-0.900,-0.647,-1.560,23.999,100.951,10,140
27900,0.569,-0.116,9.888,-2.346,-0.124,-1.863,24.091,100.947,10,140
27950,0.292,-0.213,9.731,-2.370,0.781,-2.163,23.994,100.946,10,140
28000,0.204,-0.172,9.919,0.285,0.207,-0.054,24.096,100.931,10,140
28050,0.330,-0.313,9.655,-0.081,-0.669,0.786,24.108,100.926,10,140
28100,0.279,0.027,9.902,2.081,0.064,-2.241,23.997,100.957,10,140
28150,0.400,-0.289,9.768,0.304,-2.714,-0.613,24.134,100.971,10,140
28200,0.275,0.012,9.738,-1.304,-3.446,1.347,24.035,100.973,10,140
28250,0.326,-0.181,9.587,2.163,-0.632,-0.329,23.943,100.959,10,140
28300,0.404,-0.274,9.811,0.503,1.359,0.071,24.140,100.947,10,140
28350,0.216,-0.258,9.501,-1.295,1.426,0.313,24.013,100.953,10,140
28400,0.050,-0.236,9.862,0.965,-1.244,1.287,24.148,100.945,10,140
28450,0.375,-0.386,9.569,0.838,-0.016,0.220,24.025,100.947,10,140
28500,0.383,-0.000,9.775,-2.555,1.834,0.826,24.089,100.951,10,140
28550,0.562,-0.193,9.861,-2.858,-0.946,-1.108,24.053,100.953,10,140
28600,0.200,0.002,9.675,-0.753,0.281,-1.954,24.083,100.956,10,140
28650,0.254,0.023,9.810,0.345,-1.518,-2.590,24.023,100.946,10,140
28700,0.235,-0.112,9.520,-1.779,-2.818,1.937,24.027,100.944,10,140
28750,0.158,-0.096,9.752,0.257,-3.130,1.682,24.075,100.955,10,140
28800,0.434,-0.225,9.781,1.003,0.566,-0.442,24.057,100.944,10,140
28850,0.373,-0.092,9.801,2.748,-2.384,-0.424,24.141,100.945,10,140
28900,0.100,-0.037,9.865,-1.867,1.092,-1.610,23.988,100.948,10,140
28950,0.232,-0.331,9.758,-1.582,0.019,-0.106,24.093,100.945,10,140
29000,0.132,-0.357,9.772,2.239,1.205,-1.035,24.103,100.938,10,140
29050,0.408,-0.247,9.892,0.866,-0.488,0.422,24.002,100.949,10,140
29100,0.416,0.282,9.884,0.062,-1.593,1.523,23.973,100.941,10,140
29150,0.331,-0.344,9.983,1.575,-0.924,-0.905,23.990,100.935,10,140
29200,0.341,-0.128,9.843,0.331,-0.912,0.473,23.982,100.950,10,140
29250,0.463,-0.045,9.747,-0.572,2.005,2.622,23.981,100.945,10,140
29300,0.316,-0.058,9.702,0.898,-0.521,3.508,24.078,100.948,10,140
29350,0.249,-0.077,9.882,-1.699,0.259,-2.084,24.018,100.937,10,140
29400,0.132,-0.283,9.686,0.727,1.132,-0.427,24.000,100.958,10,140
29450,0.050,-0.430,9.887,0.921,1.401,-0.392,23.993,100.944,10,140
29500,0.356,-0.292,9.718,-2.168,-1.820,1.203,24.080,100.938,10,140
29550,0.161,-0.268,9.866,-1.827,-0.321,-3.298,23.994,100.954,10,140
29600,0.395,-0.338,9.710,1.135,-0.655,-0.882,24.083,100.952,10,140
29650,0.420,-0.107,9.733,-0.245,-0.156,-2.108,24.008,100.959,10,140
29700,0.102,-0.084,9.835,-0.274,0.746,0.653,24.118,100.946,10,140
29750,0.262,-0.230,10.024,1.360,-1.455,-0.565,24.022,100.950,10,140
29800,0.315,0.070,9.586,1.487,0.596,-1.117,24.050,100.945,10,140
29850,0.295,-0.082,9.623,1.917,-0.620,2.203,24.078,100.962,10,140
29900,0.357,-0.072,9.809,-1.306,0.957,1.015,24.163,100.930,10,140
29950,0.267,-0.075,9.655,-0.394,3.133,2.079,24.014,100.964,10,140
30000,0.430,-0.108,9.848,0.310,-1.355,-0.824,24.095,100.951,10,140
30050,0.509,-0.239,9.520,-0.547,0.372,0.530,24.062,100.941,10,140
30100,0.467,-0.278,9.887,-0.474,-1.840,2.082,23.933,100.941,10,140
30150,0.342,-0.241,9.892,-0.188,-0.718,3.208,24.048,100.948,10,140
30200,0.164,-0.287,9.880,0.812,-0.031,-1.084,24.094,100.933,10,140
30250,0.252,-0.228,9.705,0.201,-1.030,-1.233,24.150,100.957,10,140
30300,0.434,-0.192,9.918,1.150,1.800,3.534,24.049,100.952,10,140
30350,0.287,-0.611,9.641,0.014,0.937,-0.877,24.117,100.963,10,140
30400,0.245,-0.029,10.012,0.688,-1.480,2.196,24.052,100.946,10,140
30450,0.308,-0.260,9.933,1.164,1.827,0.871,24.021,100.948,10,140
30500,0.397,-0.244,10.150,-0.363,-0.880,1.723,24.098,100.950,10,140
30550,0.267,-0.146,9.905,1.144,-0.452,0.648,24.103,100.958,10,140
30600,-0.069,-0.301,9.715,-0.345,0.269,1.382,24.092,100.949,10,140
30650,0.297,0.011,9.735,0.457,2.348,0.519,23.959,100.954,10,140
30700,0.249,-0.209,9.930,0.704,-0.396,1.338,24.083,100.951,10,140
30750,0.330,-0.166,9.767,-0.689,0.038,-1.431,23.999,100.963,10,140
30800,0.266,-0.199,9.791,0.035,0.034,0.098,24.021,100.959,10,140
30850,0.213,-0.074,9.581,-1.592,1.488,-0.222,24.028,100.954,10,140
30900,0.171,-0.187,9.546,-0.679,-0.975,0.809,24.106,100.941,10,140
30950,0.484,-0.266,9.565,-3.570,2.308,-0.131,24.030,100.943,10,140
31000,0.166,-0.037,9.797,2.685,-0.299,-3.525,24.104,100.946,10,140
31050,0.266,-0.012,9.776,1.743,-0.007,-1.128,24.087,100.944,10,140
31100,0.439,-0.083,9.814,0.915,0.847,-0.413,24.107,100.948,10,140
31150,0.367,-0.308,9.819,0.624,-1.183,-0.621,24.036,100.957,10,140
31200,0.210,-0.144,9.987,0.542,-2.410,0.197,24.115,100.947,10,140
31250,0.425,-0.123,9.857,-0.381,-0.757,-0.372,24.066,100.955,10,140
31300,0.345,-0.230,9.816,0.597,-2.421,-1.136,24.023,100.948,10,140
31350,0.263,-0.225,9.705,1.029,0.437,-2.443,24.064,100.939,10,140
31400,0.496,-0.248,9.762,0.149,-0.277,-0.064,24.141,100.952,10,140
31450,0.394,-0.062,9.694,2.559,1.058,1.462,24.021,100.958,10,140
31500,0.345,-0.257,10.077,0.877,-0.332,0.319,24.109,100.961,10,140
31550,0.365,-0.051,9.982,-1.823,-0.700,-1.380,24.069,100.965,10,140
31600,0.373,-0.317,9.774,1.573,-0.767,-0.115,24.079,100.932,10,140
31650,0.388,-0.153,9.876,-1.438,-1.122,-0.865,24.077,100.951,10,140
31700,0.312,0.017,9.963,-1.049,-0.950,2.604,24.049,100.964,10,140
31750,0.485,-0.258,9.777,0.154,-1.266,-1.437,24.044,100.959,10,140
31800,0.244,-0.218,9.754,-2.017,2.257,-3.483,24.032,100.956,10,140
31850,0.132,-0.123,9.956,-1.260,0.343,-1.636,24.090,100.951,10,140
31900,0.322,-0.033,9.864,2.048,0.980,-1.770,24.078,100.955,10,140
31950,0.126,-0.037,9.817,0.581,-1.316,0.138,24.080,100.947,10,140
32000,0.306,-0.443,9.969,-1.643,-3.245,-1.412,24.023,100.956,10,140
32050,0.189,-0.160,9.696,3.338,0.846,2.962,24.014,100.957,10,140
32100,0.184,-0.126,9.889,-2.366,-1.679,-1.724,23.990,100.943,10,140
32150,0.183,-0.364,9.820,0.841,-1.950,-0.814,24.065,100.948,10,140
32200,0.213,-0.099,9.908,1.039,-0.294,2.998,24.152,100.946,10,140
32250,0.281,-0.055,9.714,0.615,0.086,-1.039,24.053,100.934,10,140
32300,0.231,-0.430,10.076,2.273,1.857,0.467,24.115,100.963,10,140
32350,0.415,-0.087,9.700,0.654,-0.791,-1.761,24.008,100.954,10,140
32400,0.419,-0.356,10.013,2.211,-0.564,-0.688,24.061,100.960,10,140
32450,0.250,-0.326,9.847,-3.094,0.214,1.741,24.080,100.958,10,140
32500,0.352,-0.110,9.824,-1.244,-0.337,-0.110,24.128,100.966,10,140
32550,0.344,-0.285,9.721,-0.281,2.083,0.502,24.062,100.942,10,140
32600,0.398,-0.162,9.801,0.155,2.530,-0.241,24.150,100.962,10,140
32650,0.300,-0.092,9.792,-1.243,-0.402,-1.361,24.091,100.950,10,140
32700,0.361,-0.099,9.439,0.467,-2.703,0.250,24.022,100.951,10,140
32750,0.455,-0.397,9.829,-0.118,-2.838,0.972,24.067,100.945,10,140
32800,0.209,0.182,9.760,-2.700,-1.396,-0.550,24.046,100.949,10,140
32850,0.171,-0.132,9.750,-2.041,-1.223,-0.577,24.108,100.955,10,140
32900,0.254,-0.194,9.832,3.058,-0.926,0.701,24.102,100.940,10,140
32950,0.316,-0.177,9.751,0.851,1.543,1.695,24.056,100.952,10,140
33000,0.571,-0.326,9.833,1.335,0.225,0.984,24.075,100.958,10,140
33050,0.445,-0.222,9.830,-0.083,-0.605,-0.029,24.010,100.957,10,140
33100,0.495,0.004,9.957,-1.446,2.280,-1.073,24.064,100.968,10,140
33150,0.168,-0.097,9.840,-0.228,-1.314,0.634,24.043,100.960,10,140
33200,0.438,-0.358,9.747,-0.479,-1.773,-1.677,24.071,100.948,10,140
33250,0.100,-0.259,9.868,-1.809,-1.385,2.382,24.132,100.934,10,140
33300,0.135,-0.152,9.666,-0.379,-0.677,0.840,23.940,100.928,10,140
33350,0.150,-0.077,9.788,-2.562,0.739,1.062,24.054,100.947,10,140
33400,0.346,-0.054,9.825,0.800,-0.072,-0.572,24.021,100.953,10,140
33450,0.259,-0.225,9.916,0.732,1.305,-2.363,24.095,100.944,10,140
33500,0.199,-0.296,9.949,1.242,-1.075,-1.706,24.068,100.945,10,140
33550,0.489,-0.368,9.591,-0.384,0.016,0.199,24.105,100.971,10,140
33600,0.254,-0.260,9.600,0.365,1.280,-0.391,24.126,100.950,10,140
33650,0.472,-0.157,9.682,-0.955,-2.301,-2.606,24.081,100.959,10,140
33700,0.524,-0.203,9.779,-1.664,1.481,0.584,24.038,100.957,10,140
33750,0.360,-0.416,9.894,0.204,-0.587,-0.626,24.155,100.965,10,140
33800,0.509,-0.331,9.730,1.358,-1.813,-1.080,23.977,100.969,10,140
33850,0.419,-0.142,9.832,-0.626,-0.597,0.924,24.032,100.962,10,140
33900,0.236,-0.299,9.959,-0.216,0.832,-0.622,23.955,100.955,10,140
33950,0.136,-0.069,9.624,-2.797,0.461,0.638,24.073,100.938,10,140
34000,0.399,-0.368,9.752,-1.182,-0.567,1.279,24.036,100.956,10,140
34050,0.376,-0.397,9.669,-0.575,-0.888,0.462,23.972,100.957,10,140
34100,0.382,-0.216,9.644,0.008,-0.806,0.850,24.064,100.957,10,140
34150,0.243,-0.026,9.535,-1.524,0.736,-2.266,24.105,100.938,10,140
34200,0.305,-0.304,9.755,0.262,-0.157,-0.572,24.176,100.950,10,140
34250,0.180,-0.087,9.903,1.834,2.681,-1.409,24.121,100.961,10,140
34300,0.294,-0.167,9.453,-0.861,2.682,-2.680,24.042,100.953,10,140
34350,0.362,-0.004,9.599,0.064,1.290,-1.970,24.067,100.969,10,140
34400,0.449,-0.133,9.499,-0.196,0.580,-0.463,24.066,100.981,10,140
34450,0.269,-0.310,9.835,-0.474,-0.465,-0.131,24.108,100.952,10,140
34500,0.153,-0.212,9.862,-0.702,1.723,1.166,24.019,100.953,10,140
34550,0.528,-0.013,9.800,1.346,-1.011,-2.172,24.097,100.952,10,140
34600,0.355,-0.199,9.845,-0.769,0.710,1.250,24.066,100.958,10,140
34650,0.086,-0.289,9.977,2.643,0.376,-0.155,24.006,100.954,10,140
34700,0.386,-0.371,9.872,0.736,0.661,-1.691,24.096,100.935,10,140
34750,0.469,-0.180,9.670,2.018,1.731,-0.976,24.180,100.940,10,140
34800,0.331,-0.057,9.539,1.502,-0.097,-0.024,24.016,100.953,10,140
34850,0.164,-0.310,9.754,-1.841,2.359,-1.993,24.032,100.947,10,140
34900,0.295,-0.103,9.903,-0.454,-0.576,0.053,24.111,100.957,10,140
34950,0.233,-0.438,10.059,1.427,0.395,0.511,24.044,100.940,10,140
35000,0.255,-0.222,9.733,-2.186,-0.469,0.865,24.045,100.950,10,140
35050,0.051,-0.221,9.792,-1.839,-2.594,0.618,24.030,100.955,10,140
35100,0.245,-0.123,9.767,-2.260,-0.130,-0.492,24.103,100.945,10,140
35150,0.248,-0.095,9.944,1.139,1.557,0.681,24.109,100.959,10,140
35200,0.342,-0.189,9.823,3.607,0.021,-0.355,24.052,100.950,10,140
35250,0.323,-0.329,9.574,0.443,-2.409,0.388,24.078,100.962,10,140
35300,0.491,-0.153,9.741,-1.762,-1.188,0.060,23.967,100.951,10,140
35350,0.293,-0.120,9.767,0.153,-1.104,-0.696,23.982,100.951,10,140
35400,0.476,-0.177,9.850,-1.472,2.147,-1.151,24.111,100.951,10,140
35450,0.181,-0.075,9.808,0.268,0.678,-0.032,24.052,100.955,10,140
35500,0.247,-0.188,9.728,-2.235,-1.010,-0.743,24.072,100.962,10,140
35550,0.095,-0.181,9.546,-1.569,-0.761,-3.380,23.978,100.952,10,140
35600,0.303,-0.210,9.712,3.232,-0.242,-1.293,24.155,100.956,10,140
35650,0.251,-0.056,9.825,0.965,0.352,-1.543,24.120,100.952,10,140
35700,0.175,-0.286,9.919,-0.554,0.070,0.982,24.078,100.935,10,140
35750,0.369,-0.086,9.909,2.425,0.546,1.166,24.151,100.947,10,140
35800,0.499,0.008,9.899,2.760,1.278,-1.321,24.128,100.953,10,140
35850,0.343,-0.178,9.967,0.829,-1.044,0.729,24.108,100.943,10,140
35900,0.243,-0.241,9.735,0.523,1.527,2.839,24.132,100.960,10,140
35950,0.429,-0.039,9.762,1.040,0.483,-0.194,24.049,100.945,10,140
36000,0.263,-0.341,9.868,-0.033,0.159,0.508,24.108,100.944,10,140
36050,0.282,-0.385,9.545,-2.911,2.305,-2.740,24.096,100.965,10,140
36100,0.240,-0.004,10.024,1.418,3.559,0.934,24.036,100.955,10,140
36150,0.242,-0.349,9.657,3.474,-0.804,-0.027,24.039,100.951,10,140
36200,0.267,-0.243,9.665,-2.104,-1.099,0.457,24.177,100.961,10,140
36250,0.510,-0.137,9.798,-1.965,0.027,-3.192,24.058,100.966,10,140
36300,0.335,-0.061,9.764,-2.035,-0.689,-0.564,24.134,100.970,10,140
36350,0.210,-0.236,9.792,-0.489,-1.831,0.175,24.092,100.954,10,140
36400,0.155,-0.207,9.605,1.409,-1.490,-0.372,24.052,100.944,10,140
36450,0.173,-0.401,10.014,0.426,0.442,3.192,24.069,100.956,10,140
36500,0.300,-0.053,9.869,0.518,-0.337,0.466,24.133,100.930,10,140
36550,0.283,-0.242,9.775,-2.916,1.145,-1.220,24.063,100.945,10,140
36600,0.102,-0.245,9.594,-1.365,-0.424,0.042,24.078,100.949,10,140
36650,0.550,-0.141,9.667,-0.869,-0.936,-0.216,24.045,100.942,10,140
36700,0.492,-0.187,9.771,-0.328,-0.275,2.139,24.099,100.962,10,140
36750,-0.069,-0.154,9.935,3.012,0.096,-2.523,24.105,100.944,10,140
36800,0.087,-0.265,9.935,1.856,1.136,-1.519,24.201,100.939,10,140
36850,0.289,-0.362,9.966,0.725,1.388,0.192,24.072,100.952,10,140
36900,0.077,-0.075,9.919,-0.530,0.041,0.509,24.154,100.955,10,140
36950,0.304,-0.251,9.635,-0.831,0.171,-0.314,24.080,100.958,10,140
37000,0.351,-0.159,9.889,0.347,0.021,0.773,23.990,100.963,10,140
37050,0.148,-0.092,9.814,1.733,0.124,-1.344,24.130,100.952,10,140
37100,0.314,-0.181,9.930,1.302,0.421,-2.250,24.057,100.952,10,140
37150,0.512,-0.145,9.802,1.873,-0.088,0.038,24.085,100.936,10,140
37200,0.413,-0.140,9.780,-1.632,0.402,2.182,24.045,100.940,10,140
37250,0.350,-0.378,9.552,-0.583,-0.951,-0.331,24.050,100.954,10,140
37300,0.275,-0.260,9.759,1.033,1.524,1.443,24.112,100.918,10,140
37350,0.183,-0.226,9.838,-2.338,2.222,0.544,24.047,100.952,10,140
37400,0.260,-0.279,9.873,-0.591,-2.027,-0.862,24.072,100.940,10,140
37450,0.450,-0.317,10.021,1.434,-1.320,0.288,24.137,100.949,10,140
37500,0.161,-0.176,10.048,-2.139,0.928,0.112,24.072,100.947,10,140
37550,0.264,-0.066,9.885,-1.395,2.439,-1.844,24.112,100.953,10,140
37600,0.443,-0.146,9.939,0.068,1.564,0.622,24.186,100.944,10,140
37650,0.443,-0.133,9.836,-0.742,0.779,-2.102,24.010,100.958,10,140
37699,0.120,-0.018,9.783,0.485,0.224,0.742,24.065,100.947,10,140
37749,0.288,-0.064,9.949,2.024,0.661,-0.188,23.995,100.957,10,140
37799,0.402,-0.235,9.911,2.048,0.256,1.700,24.095,100.933,10,140
37849,0.248,-0.235,9.878,-1.180,-0.543,-1.329,24.078,100.951,10,140
37899,0.418,-0.093,9.835,0.477,0.279,0.284,24.157,100.926,10,140
37949,0.283,-0.150,9.949,-1.526,0.636,1.408,24.057,100.932,10,140
37999,0.261,-0.328,9.892,-1.161,2.787,0.328,24.040,100.946,10,140
38049,0.175,-0.141,9.991,-0.208,1.503,-1.298,24.095,100.974,10,140
38099,0.138,-0.042,9.954,-2.704,-2.036,-1.349,24.128,100.946,10,140
38149,0.284,-0.104,9.830,0.454,-0.367,1.801,24.041,100.968,10,140
38199,0.263,-0.281,9.892,0.790,-2.857,0.445,24.013,100.942,10,140
38249,0.396,-0.289,9.857,-0.459,3.010,-0.034,24.021,100.940,10,140
38299,0.196,-0.173,9.815,1.559,0.355,0.297,24.096,100.949,10,140
38349,0.337,-0.096,9.907,-0.718,-2.553,-1.114,24.094,100.926,10,140
38399,0.246,-0.136,9.748,-1.583,2.725,2.170,24.067,100.964,10,140
38449,0.454,-0.322,10.129,-1.316,-0.306,-1.555,24.084,100.937,10,140
38499,0.300,-0.062,9.838,-0.313,2.401,-1.262,24.128,100.948,10,140
38549,0.326,-0.186,9.828,-0.002,-1.096,-0.777,24.102,100.949,10,140
38599,0.163,-0.273,9.731,-0.013,0.336,0.204,24.047,100.951,10,140
38649,0.138,-0.531,9.805,-2.420,-1.361,-1.751,24.111,100.938,10,140
38699,0.331,-0.250,9.665,-2.314,0.738,0.623,24.118,100.969,10,140
38749,0.329,-0.160,9.795,0.193,-0.492,-1.310,24.178,100.932,10,140
38799,0.326,-0.142,9.826,-1.419,-0.266,-0.672,24.024,100.950,10,140
38849,0.247,-0.260,9.888,-1.579,0.668,-0.909,24.099,100.951,10,140
38899,0.323,-0.311,9.715,-1.284,0.258,1.116,24.132,100.945,10,140
38949,0.304,-0.387,9.545,-1.307,-1.008,-2.337,23.989,100.955,10,140
38999,0.199,-0.395,10.078,0.238,-0.496,0.992,24.039,100.966,10,140
39049,0.111,-0.352,9.788,-1.175,2.078,-2.431,24.041,100.952,10,140
39099,0.357,-0.082,9.844,3.254,-0.752,0.218,24.119,100.947,10,140
39149,0.256,-0.254,9.727,-1.739,-0.882,-2.370,24.095,100.934,10,140
39199,0.532,-0.001,9.932,-0.377,-0.939,1.767,24.085,100.955,10,140
39249,0.205,-0.076,9.708,0.092,-2.655,-1.049,24.101,100.945,10,140
39299,0.236,-0.109,9.792,1.782,-3.685,0.775,24.101,100.934,10,140
39349,0.136,-0.099,9.676,-1.028,0.816,-0.574,24.100,100.941,10,140
39399,0.323,-0.075,9.839,-3.357,0.894,0.008,24.031,100.963,10,140
39449,0.084,0.017,9.726,2.271,-0.147,-2.067,24.081,100.953,10,140
39499,0.351,-0.078,9.695,0.654,1.019,-0.487,24.030,100.940,10,140
39549,0.376,-0.109,9.703,-2.082,1.768,-2.402,24.084,100.941,10,140
39599,0.082,-0.188,9.778,2.066,3.309,-0.364,24.127,100.960,10,140
39649,0.226,-0.304,9.989,-0.629,-0.122,-0.518,24.070,100.943,10,140
39699,0.375,-0.056,9.756,-2.144,-0.008,-2.305,24.045,100.962,10,140
39749,0.559,-0.159,9.675,1.080,-3.437,-1.121,24.152,100.957,10,140
39799,0.126,-0.398,9.900,-0.155,-0.970,0.531,24.048,100.930,10,140
39849,0.382,-0.279,9.683,-2.074,0.289,-1.285,24.108,100.947,10,140
39899,0.414,-0.248,9.724,-3.023,-1.724,0.991,24.229,100.937,10,140
39949,0.166,-0.163,9.856,-1.094,0.034,-2.483,24.062,100.958,10,140
39999,0.479,-0.222,9.770,0.593,1.570,0.645,24.040,100.953,10,140
40049,0.401,-0.286,9.644,0.678,0.465,1.361,24.082,100.943,10,140
40099,0.237,-0.323,9.690,-0.917,-0.801,1.584,24.017,100.949,10,140
40149,0.219,-0.028,9.831,-0.633,1.140,0.024,24.054,100.965,10,140
40199,0.372,0.001,9.936,1.084,0.125,-1.689,24.113,100.950,10,140
40249,0.368,-0.203,9.721,-1.569,0.975,1.859,24.064,100.954,10,140
40299,0.451,-0.299,9.762,-1.734,1.693,0.327,24.056,100.933,10,140
40349,0.268,-0.084,9.767,-0.694,0.893,-1.898,24.081,100.956,10,140
40399,0.198,-0.298,9.831,-0.207,-0.410,0.250,24.090,100.940,10,140
40449,0.212,-0.148,9.933,1.960,-1.317,1.573,24.117,100.949,10,140
40499,0.347,-0.103,10.011,-1.623,0.842,-0.260,24.069,100.961,10,140
40549,0.386,-0.319,9.770,0.289,-2.150,1.235,24.076,100.951,10,140
40599,0.330,0.011,9.807,-0.578,2.537,-0.792,24.054,100.936,10,140
40649,0.417,-0.168,9.858,0.201,-0.246,-1.211,24.041,100.954,10,140
40699,0.305,-0.010,9.715,-0.767,-1.558,2.002,24.019,100.957,10,140
40749,0.458,-0.216,9.888,-3.198,-0.615,-2.502,24.089,100.950,10,140
40799,0.201,-0.089,9.845,-0.816,-0.801,-2.220,24.071,100.971,10,140
40849,0.208,-0.150,9.740,1.153,0.614,-0.384,23.992,100.945,10,140
40899,0.431,-0.227,9.877,-0.750,-2.805,0.595,24.096,100.944,10,140
40949,0.248,-0.165,9.735,0.476,-0.338,-3.532,24.074,100.944,10,140
40999,0.194,-0.152,9.747,0.765,1.586,0.177,24.004,100.943,10,140
41049,0.398,-0.229,9.710,-0.167,0.713,0.351,24.113,100.942,10,140
41099,0.260,-0.228,9.802,-3.139,-0.382,-2.020,24.150,100.965,10,140
41149,0.487,-0.104,9.748,1.393,-0.327,0.878,24.037,100.944,10,140
41199,0.346,0.008,9.802,3.315,4.059,-1.928,24.080,100.940,10,140
41249,0.276,-0.260,9.797,1.405,1.367,0.361,24.082,100.951,10,140
41299,0.307,-0.131,9.805,0.722,-1.965,1.153,24.168,100.952,10,140
41349,0.128,-0.041,9.767,-4.455,-0.345,0.877,24.101,100.962,10,140
41399,0.365,-0.183,9.575,-1.673,0.246,0.985,24.031,100.944,10,140
41449,0.347,-0.420,9.579,-0.361,0.355,-0.730,23.969,100.950,10,140
41499,0.138,-0.121,9.793,0.374,0.933,-0.800,24.123,100.962,10,140
41549,0.339,-0.043,9.732,1.342,0.381,-1.483,24.079,100.945,10,140
41599,0.228,-0.187,9.929,-0.489,0.168,-2.197,24.088,100.961,10,140
41649,0.387,-0.142,9.744,-1.465,-0.156,-2.004,24.022,100.959,10,140
41699,0.186,0.012,9.639,0.622,-1.757,0.242,24.031,100.950,10,140
41749,0.275,-0.250,9.865,2.225,-0.895,1.297,24.087,100.950,10,140
41799,0.548,-0.450,9.726,-2.707,-0.483,-0.358,24.272,100.953,10,140
41849,0.502,-0.046,9.754,0.695,2.463,0.240,24.093,100.955,10,140
41899,0.117,-0.292,9.845,0.793,-1.383,-0.498,24.077,100.948,10,140
41949,0.374,-0.185,9.825,-2.122,-1.585,0.458,24.004,100.953,10,140
41999,0.215,-0.293,9.881,-1.028,-1.299,-1.027,24.086,100.977,10,140
42049,0.045,-0.200,9.776,1.391,-0.578,-3.706,24.149,100.939,10,140
42099,0.285,-0.358,9.676,-0.771,1.245,1.223,24.053,100.955,10,140
42149,0.248,-0.186,9.822,0.888,-0.953,-0.234,24.094,100.951,10,140
42199,0.198,0.002,9.750,1.089,0.264,1.780,23.975,100.970,10,140
42249,0.266,-0.343,9.818,3.322,0.711,-1.878,24.060,100.963,10,140
42299,0.127,-0.221,9.769,3.185,-0.480,1.913,24.049,100.942,10,140
42349,0.408,-0.127,9.601,0.908,0.912,-0.961,24.094,100.952,10,140
42399,0.234,-0.268,9.725,-0.452,-2.028,-0.111,24.009,100.950,10,140
42449,0.281,-0.321,9.902,2.836,1.925,-2.084,24.146,100.952,10,140
42499,0.284,-0.270,9.802,2.018,0.760,-0.667,24.050,100.946,10,140
42549,0.359,0.018,9.679,-0.054,-0.624,-1.172,24.103,100.955,10,140
42599,0.125,-0.321,9.942,0.421,0.725,-0.797,24.065,100.954,10,140
42649,0.232,-0.330,9.803,1.294,-1.583,1.520,24.118,100.941,10,140
42699,0.291,-0.205,9.877,0.939,-1.987,-2.054,24.135,100.951,10,140
42749,0.339,-0.161,9.981,-1.844,1.567,-1.267,24.120,100.963,10,140
42799,0.129,-0.153,9.770,-0.482,0.012,-1.612,24.036,100.956,10,140
42849,0.389,-0.266,9.633,3.385,1.580,0.482,24.033,100.944,10,140
42899,0.318,-0.312,9.989,0.152,0.531,-1.576,24.039,100.942,10,140
42949,0.322,-0.231,9.769,0.416,0.282,2.144,24.074,100.940,10,140
42999,0.289,-0.030,9.738,0.021,-0.580,0.548,24.097,100.942,10,140
43049,0.264,-0.091,9.930,1.312,1.223,-0.542,24.067,100.959,10,140
43099,0.155,-0.207,9.588,-0.609,-1.091,-1.827,24.113,100.942,10,140
43149,0.248,-0.230,9.718,2.047,-0.777,0.241,24.020,100.945,10,140
43199,0.253,-0.235,9.735,0.162,2.248,-0.244,24.078,100.946,10,140
43249,0.584,-0.013,9.867,0.989,-1.094,-0.273,24.095,100.951,10,140
43299,0.192,-0.290,9.862,0.413,-3.150,0.089,24.147,100.943,10,140
43349,0.318,-0.368,9.899,-1.687,-1.888,-0.513,24.201,100.944,10,140
43399,0.145,-0.146,9.829,2.393,-1.912,-2.391,24.070,100.953,10,140
43449,0.332,-0.075,9.631,-1.259,-0.239,1.189,24.109,100.946,10,140
43499,0.173,-0.098,9.913,3.945,-0.307,2.343,24.026,100.944,10,140
43549,0.213,-0.253,9.702,-0.844,-0.125,-0.706,24.118,100.949,10,140
43599,0.291,-0.030,9.839,0.183,-0.073,0.048,24.114,100.942,10,140
43649,0.423,-0.018,9.936,-0.767,-2.385,-0.686,24.093,100.958,10,140
43699,0.270,-0.235,9.979,-1.028,1.522,1.286,24.021,100.952,10,140
43749,0.227,-0.309,9.590,-2.346,0.565,-0.614,24.099,100.939,10,140
43799,0.254,-0.231,9.625,-2.486,0.603,0.173,24.040,100.949,10,140
43849,0.367,0.012,9.701,0.863,3.069,0.053,24.158,100.924,10,140
43899,0.458,-0.201,9.587,1.102,1.499,1.733,24.145,100.949,10,140
43949,0.204,-0.253,9.799,0.553,-0.751,0.028,24.129,100.953,10,140
43999,0.555,0.049,9.671,-0.879,-1.970,-1.757,24.113,100.940,10,140
44049,0.170,-0.231,9.896,-0.567,-0.570,1.308,24.110,100.954,10,140
44099,0.400,-0.317,9.828,-0.978,1.469,1.158,24.035,100.963,10,140
44149,0.156,-0.064,9.827,-1.329,-1.693,-0.493,24.086,100.943,10,140
44199,0.356,-0.362,9.802,-0.043,-2.805,0.412,24.025,100.925,10,140
44249,0.220,-0.226,9.908,-0.762,2.131,2.079,24.141,100.963,10,140
44299,0.331,-0.264,9.878,1.385,0.308,-0.407,24.010,100.956,10,140
44349,0.331,-0.351,9.815,1.023,-0.207,1.113,24.124,100.935,10,140
44399,0.256,-0.143,9.909,2.041,-2.883,-0.143,24.123,100.962,10,140
44449,0.487,-0.308,9.760,-1.606,1.166,-2.006,24.146,100.959,10,140
44499,0.347,-0.452,9.724,1.064,-2.145,-0.401,24.082,100.958,10,140
44549,0.323,-0.168,9.752,-0.038,-0.245,1.033,24.079,100.960,10,140
44599,0.093,-0.060,9.783,1.625,0.077,1.220,24.161,100.944,10,140
44649,0.300,-0.220,9.827,-2.448,-0.301,-0.417,24.049,100.948,10,140
44699,0.111,-0.037,9.855,2.744,-1.344,-1.778,24.102,100.933,10,140
44749,0.317,-0.282,9.764,0.326,0.018,2.709,24.119,100.937,10,140
44799,0.404,-0.356,9.813,-1.900,-1.279,1.895,24.060,100.943,10,140
44849,0.225,-0.237,9.970,-1.802,-1.887,0.804,24.009,100.946,10,140
44899,0.421,-0.200,9.746,-1.111,-1.417,-0.935,24.095,100.962,10,140
44949,0.402,-0.267,9.717,0.966,-2.756,-0.717,24.072,100.939,10,140
44999,0.173,-0.161,9.609,-1.428,-1.035,0.045,24.020,100.960,10,140
45049,0.252,-0.233,9.758,-1.081,-1.538,1.613,24.097,100.948,10,140
45099,0.403,-0.286,9.872,-0.061,-1.412,1.028,24.013,100.956,10,140
45149,0.184,-0.157,9.959,0.737,-0.995,-0.148,24.069,100.938,10,140
45199,0.157,-0.200,9.860,-2.719,-0.221,0.633,24.092,100.939,10,140
45249,0.405,-0.346,9.872,2.241,-3.136,0.255,24.102,100.951,10,140
45299,0.195,-0.242,9.635,0.064,0.660,-1.114,24.041,100.944,10,140
45349,0.283,-0.200,9.784,-0.036,-2.069,-4.159,24.116,100.963,10,140
45399,0.120,-0.284,9.830,1.262,0.812,1.739,24.083,100.953,10,140
45449,0.330,-0.257,9.934,0.773,1.294,-0.719,24.137,100.939,10,140
45499,0.328,-0.509,9.679,0.936,-0.809,0.107,24.007,100.964,10,140
45549,0.351,-0.211,9.843,0.333,1.930,0.166,24.014,100.947,10,140
45599,0.430,-0.142,9.746,0.746,0.021,0.745,24.009,100.940,10,140
45649,0.359,-0.234,9.835,2.724,-0.607,0.205,24.059,100.943,10,140
45699,0.274,-0.375,9.553,1.853,-0.301,1.498,24.092,100.950,10,140
45749,0.360,-0.125,9.657,1.622,-1.572,0.149,24.211,100.950,10,140
45799,0.474,-0.248,9.866,-0.073,0.464,-1.401,24.042,100.952,10,140
45849,0.103,-0.305,9.869,-1.049,-1.450,-1.771,24.094,100.945,10,140
45899,0.300,-0.229,10.008,-0.787,-3.014,0.023,24.087,100.951,10,140
45949,0.098,-0.078,9.792,-0.210,-2.463,0.545,24.084,100.962,10,140
45999,0.235,-0.349,9.810,-1.482,0.460,-1.729,24.081,100.947,10,140
46049,0.279,-0.267,9.702,-0.234,-0.993,0.076,24.074,100.927,10,140
46099,0.276,-0.049,9.830,0.726,0.517,-0.830,24.023,100.957,10,140
46149,0.403,-0.143,9.844,0.427,-0.187,0.252,24.088,100.952,10,140
46199,0.175,-0.279,9.860,-0.638,-3.653,0.035,23.977,100.967,10,140
46249,0.365,-0.131,9.720,-1.775,-0.450,-0.114,24.051,100.951,10,140
46299,0.361,-0.139,9.678,-3.263,-0.135,-1.090,24.109,100.965,10,140
46349,0.469,-0.175,9.921,2.231,-0.069,0.257,24.129,100.949,10,140
46399,0.228,-0.291,9.797,-1.022,1.017,-0.607,24.159,100.961,10,140
46449,0.145,-0.084,9.752,1.843,0.614,-0.186,24.121,100.944,10,140
46499,0.322,-0.162,9.781,0.440,-1.544,0.685,24.032,100.955,10,140
46549,0.339,-0.125,9.736,4.233,-0.428,0.114,24.054,100.963,10,140
46599,0.234,-0.092,9.693,0.349,-0.622,1.237,24.076,100.941,10,140
46649,0.338,-0.336,9.693,1.010,-2.749,0.999,24.072,100.941,10,140
46699,0.315,-0.132,9.735,-0.326,1.064,0.998,24.089,100.942,10,140
46749,0.183,-0.268,9.877,0.755,0.368,1.913,24.077,100.946,10,140
46799,0.247,0.012,9.573,0.357,0.579,0.035,24.202,100.961,10,140
46849,0.376,-0.300,9.858,-0.571,0.019,0.242,24.070,100.956,10,140
46899,0.472,-0.084,9.828,-2.767,1.502,1.490,24.084,100.945,10,140
46949,0.365,-0.288,9.893,-1.551,-1.325,-0.001,24.025,100.950,10,140
46999,0.351,-0.343,9.908,-0.811,0.755,0.283,24.072,100.945,10,140
47049,0.104,-0.274,9.720,2.300,1.420,-1.943,24.131,100.952,10,140
47099,0.251,-0.146,9.893,-0.812,-0.397,0.223,24.048,100.952,10,140
47149,0.285,-0.272,9.713,0.422,1.224,0.458,24.054,100.957,10,140
47199,0.312,-0.131,9.934,-1.274,-0.202,-0.844,24.053,100.969,10,140
47249,0.397,-0.391,9.853,-0.784,1.607,0.114,24.086,100.951,10,140
47299,0.336,-0.193,9.782,-0.196,0.714,-1.585,24.094,100.949,10,140
47349,0.241,-0.115,9.665,-0.514,-1.196,0.762,24.073,100.950,10,140
47399,0.336,-0.372,9.856,-1.049,-0.358,-0.159,24.133,100.957,10,140
47449,0.488,-0.177,9.754,-0.705,0.915,2.245,24.111,100.945,10,140
47499,0.324,-0.168,9.810,-1.041,-3.556,-0.752,24.144,100.952,10,140
47549,0.051,-0.196,9.604,2.787,0.267,-1.686,24.132,100.943,10,140
47599,0.356,-0.194,9.677,0.932,-1.876,1.878,24.098,100.940,10,140
47649,0.095,-0.019,9.966,-1.761,2.306,0.234,24.085,100.949,10,140
47699,0.265,-0.039,9.823,-2.581,2.932,1.235,24.045,100.947,10,140
47749,0.195,-0.191,9.850,0.334,-0.838,-1.121,24.135,100.949,10,140
47799,0.542,-0.285,9.893,0.068,-1.065,1.908,24.101,100.942,10,140
47849,0.259,-0.084,9.672,1.932,0.960,-0.390,24.159,100.966,10,140
47899,0.360,-0.177,10.010,2.097,-1.300,-0.290,24.086,100.946,10,140
47949,0.129,-0.097,9.816,0.139,1.978,-0.794,24.093,100.953,10,140
47999,0.247,-0.208,9.891,-0.012,1.873,-1.056,24.105,100.937,10,140
48049,0.281,-0.274,9.957,1.049,0.717,2.600,24.164,100.957,10,140
48099,0.218,-0.356,9.803,-0.502,-0.913,-0.410,24.018,100.964,10,140
48149,0.168,-0.271,9.870,-2.300,1.302,1.326,24.082,100.940,10,140
48199,0.242,-0.402,9.961,0.077,-1.042,-1.285,24.123,100.964,10,140
48249,0.153,-0.260,9.611,0.958,0.222,3.203,24.091,100.946,10,140
48299,0.215,-0.101,9.625,1.065,0.350,-0.718,24.054,100.960,10,140
48349,0.502,-0.246,9.866,2.476,-0.881,-0.358,24.039,100.949,10,140
48399,0.285,-0.243,9.724,-2.253,-1.914,-1.391,24.127,100.945,10,140
48449,0.199,-0.123,9.870,-1.075,-0.893,0.942,24.114,100.942,10,140
48499,0.321,-0.199,9.931,-1.238,1.260,0.617,24.049,100.960,10,140
48549,0.396,-0.344,10.029,-1.639,-1.314,-0.461,24.134,100.956,10,140
48599,0.284,-0.043,9.852,2.000,4.040,0.277,23.974,100.946,10,140
48649,0.173,-0.186,9.818,-1.764,-1.659,-0.380,24.088,100.925,10,140
48699,0.404,-0.193,9.806,0.428,-1.479,-0.073,24.147,100.960,10,140
48749,0.347,-0.228,9.713,1.913,0.760,-0.614,23.992,100.942,10,140
48799,0.074,-0.054,9.828,-1.085,-0.404,3.789,24.157,100.937,10,140
48849,0.279,-0.337,9.609,0.255,3.537,2.288,24.100,100.946,10,140
48899,0.317,-0.077,9.638,-2.748,2.766,0.412,24.177,100.952,10,140
48949,0.465,-0.267,9.864,2.290,1.507,-0.680,24.142,100.943,10,140
48999,0.129,-0.135,9.969,1.258,-1.864,1.288,24.132,100.945,10,140
49049,0.005,-0.078,9.910,0.738,-2.572,-2.213,24.148,100.958,10,140
49099,0.352,-0.225,9.853,-0.806,-0.465,-1.291,24.111,100.946,10,140
49149,0.406,-0.112,9.712,2.739,-1.674,0.672,24.152,100.963,10,140
49199,0.036,-0.079,9.950,2.150,-3.325,-1.012,24.093,100.946,10,140
49249,0.452,-0.276,9.951,0.840,-2.177,-1.485,24.075,100.951,10,140
49299,0.411,-0.218,9.914,-2.360,-4.572,-0.505,24.122,100.946,10,140
49349,0.175,-0.146,10.034,-0.155,-1.089,-1.268,24.197,100.950,10,140
49399,0.366,-0.053,9.933,-1.383,1.434,1.266,24.123,100.960,10,140
49449,0.228,-0.205,9.745,1.137,-0.980,0.590,24.044,100.949,10,140
49499,0.252,-0.210,9.822,-0.276,-0.329,-3.105,24.154,100.944,10,140
49549,0.265,-0.293,9.924,-1.356,0.756,1.767,24.181,100.962,10,140
49599,0.367,-0.337,9.959,1.783,1.259,1.207,24.103,100.945,10,140
49649,0.422,-0.046,9.685,1.377,0.378,1.338,24.113,100.961,10,140
49699,0.416,-0.091,9.646,1.248,0.092,-1.664,24.135,100.937,10,140
49749,0.401,0.004,9.750,1.397,0.698,0.996,24.033,100.956,10,140
49799,0.312,-0.107,9.810,1.664,0.441,1.045,24.169,100.952,10,140
49849,0.413,-0.167,9.871,-0.743,1.192,1.862,24.097,100.958,10,140
49899,0.347,-0.321,9.851,2.000,-0.674,-2.592,24.111,100.944,10,140
49949,0.518,-0.197,9.810,-0.880,0.419,-0.783,24.057,100.950,10,140
49999,0.204,-0.039,9.676,-0.056,-0.964,-1.983,24.183,100.930,10,140
50049,0.466,-0.355,9.821,3.385,-3.081,-1.968,24.166,100.952,10,140
50099,0.235,-0.196,9.699,0.233,2.251,-0.510,24.109,100.962,10,140
50149,0.528,-0.260,9.845,-0.774,-0.895,-0.535,24.071,100.933,10,140
50199,0.069,-0.276,9.826,1.838,-0.726,-0.193,24.135,100.958,10,140
50249,0.285,-0.198,10.027,-0.438,-0.667,-2.336,24.123,100.948,10,140
50299,0.518,-0.231,9.904,1.424,2.473,-1.871,24.179,100.950,10,140
50349,0.286,-0.228,9.765,-0.452,-3.372,0.802,24.106,100.941,10,140
50399,0.291,0.073,9.855,-0.516,2.561,-1.115,24.095,100.945,10,140
50449,0.271,-0.108,9.877,-1.019,-0.138,0.176,24.083,100.950,10,140
50499,0.215,-0.277,9.816,-1.461,0.661,-0.234,24.058,100.944,10,140
50549,0.243,-0.211,9.823,-0.257,-1.221,2.138,24.147,100.951,10,140
50599,0.407,-0.155,9.781,0.170,3.932,1.493,24.153,100.946,10,140
50649,0.366,0.066,9.859,1.608,1.877,0.982,24.179,100.953,10,140
50699,0.354,-0.264,10.111,0.487,0.205,2.065,24.079,100.950,10,140
50749,0.208,-0.190,9.766,0.831,-0.142,-0.827,24.089,100.949,10,140
50799,0.239,-0.086,9.887,0.253,-1.686,0.792,24.041,100.952,10,140
50849,0.303,-0.260,9.715,-0.968,3.019,-0.344,24.093,100.960,10,140
50899,0.345,-0.073,9.670,-1.537,4.865,-0.021,24.089,100.952,10,140
50949,0.410,-0.328,9.842,-0.001,1.014,0.291,24.078,100.942,10,140
50999,0.021,-0.082,9.643,-0.544,2.444,-0.565,24.133,100.948,10,140
51049,0.377,-0.190,9.752,1.990,-0.345,-1.894,24.088,100.955,10,140
51099,0.171,-0.104,9.896,3.101,-0.887,0.993,24.023,100.946,10,140
51149,0.309,-0.147,9.803,-0.092,-0.845,-0.603,24.118,100.956,10,140
51199,0.370,-0.081,9.944,-2.557,-0.714,-0.194,24.073,100.960,10,140
51249,0.382,-0.205,9.823,1.858,-0.462,-0.414,24.147,100.955,10,140
51299,0.457,-0.151,9.894,-0.745,-1.313,0.025,23.977,100.954,10,140
51349,0.407,-0.184,9.785,1.602,-0.022,1.448,24.209,100.957,10,140
51399,0.403,-0.137,9.838,0.435,0.136,1.596,24.027,100.948,10,140
51449,0.371,-0.288,9.798,-0.957,0.672,1.279,24.174,100.955,10,140
51499,0.216,-0.165,9.874,2.063,-3.036,0.572,24.017,100.957,10,140
51549,0.347,-0.137,9.909,0.592,-0.887,0.543,24.162,100.949,10,140
51599,0.300,-0.329,9.940,-0.683,-1.024,-0.601,24.063,100.948,10,140
51649,0.441,-0.104,9.970,2.169,-1.243,0.728,24.176,100.972,10,140
51699,0.138,-0.353,9.862,-0.441,-1.385,0.584,24.067,100.929,10,140
51749,0.295,-0.179,9.881,1.383,0.298,-0.302,24.073,100.935,10,140
51799,0.248,-0.081,9.883,2.972,-0.184,-2.521,24.144,100.960,10,140
51849,0.166,-0.375,9.826,1.051,-1.572,-0.455,24.068,100.939,10,140
51899,0.149,-0.178,9.767,-0.932,-3.707,2.531,24.060,100.949,10,140
51949,0.168,-0.152,9.639,0.160,-0.245,1.339,24.052,100.944,10,140
51999,0.270,0.041,9.643,0.438,-0.917,0.466,24.136,100.951,10,140
52049,0.325,-0.163,9.742,-0.292,-2.355,-0.491,24.068,100.948,10,140
52099,0.378,-0.152,9.861,1.594,-3.400,0.629,24.103,100.949,10,140
52149,0.148,-0.133,9.937,1.483,-0.112,0.925,24.149,100.967,10,140
52199,0.433,-0.179,9.818,0.248,0.334,-0.703,24.142,100.943,10,140
52249,0.205,-0.156,9.743,-0.343,-2.966,1.144,24.104,100.949,10,140
52299,0.347,-0.172,9.729,2.875,-0.640,1.400,24.192,100.944,10,140
52349,0.305,-0.288,9.925,-0.475,-1.570,1.889,24.149,100.942,10,140
52399,0.427,-0.174,10.112,2.459,-0.791,-0.382,24.063,100.951,10,140
52449,0.300,-0.113,9.817,-2.103,-1.159,2.026,24.160,100.948,10,140
52499,0.279,-0.215,9.809,-2.402,1.282,-0.941,24.112,100.926,10,140
52549,0.321,-0.046,9.556,2.176,0.677,-1.049,24.029,100.961,10,140
52599,0.324,-0.129,9.776,-1.141,1.247,-1.367,24.148,100.934,10,140
52649,0.190,-0.359,9.954,-2.509,-1.633,0.946,24.116,100.971,10,140
52699,0.501,-0.127,9.884,-2.617,-1.264,-0.471,24.097,100.937,10,140
52749,0.189,-0.291,9.926,0.610,-0.476,-0.396,24.119,100.943,10,140
52799,0.265,-0.390,9.882,1.379,0.519,0.685,24.123,100.970,10,140
52849,0.317,-0.345,9.689,1.020,1.530,1.105,24.146,100.952,10,140
52899,0.126,-0.276,9.603,-0.558,-1.961,0.135,24.098,100.931,10,140
52949,0.376,-0.111,9.649,0.202,1.025,-0.424,24.147,100.952,10,140
52999,0.415,-0.176,9.787,0.726,1.118,0.348,24.084,100.942,10,140
53049,0.251,-0.262,9.829,0.229,-0.139,-0.020,24.114,100.965,10,140
53099,0.429,-0.263,9.853,-0.494,-0.160,-0.373,24.075,100.937,10,140
53149,0.013,-0.175,9.939,-1.332,0.708,-0.582,24.119,100.942,10,140
53199,0.266,-0.211,9.535,0.285,-0.226,-3.617,24.137,100.949,10,140
53249,0.315,-0.157,9.757,-1.588,-0.676,-0.650,24.213,100.968,10,140
53299,0.236,-0.246,9.841,0.784,-1.039,-1.488,24.199,100.960,10,140
53349,0.114,-0.400,9.710,0.281,0.756,-0.534,24.027,100.952,10,140
53399,0.360,-0.200,9.747,0.794,-0.125,-1.674,24.110,100.937,10,140
53449,0.401,-0.146,9.689,0.265,1.779,-3.170,24.099,100.966,10,140
53499,0.113,-0.219,9.640,-0.144,-3.553,-2.416,24.079,100.951,10,140
53549,0.334,-0.151,9.935,0.976,1.035,-1.479,24.098,100.981,10,140
53599,0.551,-0.104,9.888,1.405,-0.637,2.831,24.087,100.949,10,140
53649,0.542,-0.440,9.845,-2.578,-1.006,-0.180,24.089,100.951,10,140
53699,0.202,-0.212,9.666,-0.616,-2.091,0.923,24.042,100.957,10,140
53749,0.243,-0.235,9.940,0.115,-2.845,0.694,23.963,100.952,10,140
53799,0.244,-0.362,9.812,-0.501,2.926,-0.694,24.202,100.963,10,140
53849,0.220,-0.295,9.957,-0.247,0.192,-0.423,24.046,100.946,10,140
53899,0.179,-0.378,9.769,2.609,2.360,-0.137,24.113,100.955,10,140
53949,0.449,-0.162,9.747,-0.628,1.644,3.835,24.075,100.929,10,140
53999,0.385,-0.209,9.819,1.801,0.057,-2.023,24.009,100.949,10,140
54049,0.155,-0.166,9.654,-0.570,-2.240,-0.586,24.084,100.956,10,140
54099,0.448,-0.221,9.702,2.881,0.500,0.872,24.137,100.964,10,140
54149,0.409,-0.120,9.893,-1.325,-0.951,-0.199,24.112,100.950,10,140
54199,0.327,-0.196,9.753,-2.468,1.212,0.840,24.063,100.955,10,140
54249,0.338,-0.191,9.588,-1.843,-0.938,2.378,24.064,100.946,10,140
54299,0.161,-0.257,9.844,-3.143,-4.286,0.953,24.109,100.944,10,140
54349,0.405,-0.085,9.557,-0.290,1.621,-1.041,24.092,100.959,10,140
54399,0.260,-0.340,9.723,-2.025,0.791,-2.622,24.158,100.933,10,140
54449,0.296,-0.372,9.766,1.493,1.643,1.916,24.103,100.951,10,140
54499,0.318,-0.127,9.757,1.610,0.449,1.676,24.132,100.957,10,140
54549,0.205,-0.248,9.652,-0.483,-0.304,1.214,24.045,100.982,10,140
54599,0.277,-0.051,9.926,-3.819,-0.433,2.170,23.987,100.957,10,140
54649,0.183,-0.254,9.830,-2.839,0.253,-1.010,24.070,100.957,10,140
54699,0.704,-0.159,9.869,-0.117,-1.126,0.346,24.184,100.952,10,140
54749,0.396,-0.226,10.100,-2.516,0.834,0.769,24.121,100.939,10,140
54799,0.157,-0.227,9.815,-1.867,-1.647,0.792,24.160,100.944,10,140
54849,0.208,-0.286,10.094,0.684,-0.150,1.458,24.223,100.961,10,140
54899,0.122,-0.210,9.755,-0.569,-1.882,-0.643,24.054,100.953,10,140
54949,0.295,-0.367,9.601,-0.778,0.920,0.685,24.105,100.917,10,140
54999,0.231,-0.288,9.762,-1.893,-0.710,-1.059,24.244,100.957,10,140
55049,0.267,-0.207,9.788,0.223,-0.669,-0.087,24.160,100.958,10,140
55099,0.326,-0.044,9.828,-1.537,-2.689,-1.107,24.105,100.954,10,140
55149,0.417,-0.269,9.707,1.100,1.711,-0.779,24.125,100.963,10,140
55199,0.327,-0.207,9.557,1.934,0.909,0.129,24.085,100.937,10,140
55249,0.278,-0.213,9.931,-1.883,2.108,-0.007,24.168,100.940,10,140
55299,0.330,-0.057,9.815,-2.271,-0.557,0.745,24.038,100.935,10,140
55349,0.317,-0.313,9.882,-1.828,-2.821,-1.227,24.183,100.941,10,140
55399,0.289,-0.172,9.690,1.581,0.207,0.610,24.025,100.932,10,140
55449,-0.035,-0.223,9.775,1.029,2.174,-0.438,24.096,100.954,10,140
55499,0.470,-0.298,9.876,-0.427,-0.559,1.168,24.070,100.939,10,140
55549,0.368,-0.203,9.771,-0.255,0.691,-0.611,24.148,100.954,10,140
55599,0.465,-0.051,9.903,-0.358,0.124,-0.944,24.252,100.947,10,140
55649,0.356,-0.040,9.642,-1.292,-0.644,-1.544,24.046,100.944,10,140
55699,0.442,-0.115,9.807,-0.007,-2.542,0.996,24.131,100.939,10,140
55749,0.315,-0.223,9.742,-1.532,-1.061,-1.462,24.133,100.953,10,140
55799,0.328,-0.221,9.755,3.018,-2.840,1.749,24.128,100.950,10,140
55849,0.231,-0.225,9.663,-2.127,-0.213,-2.529,24.152,100.961,10,140
55899,-0.114,-0.382,9.835,0.274,0.123,0.589,24.148,100.958,10,140
55949,0.502,-0.196,9.905,-2.476,-0.238,-1.870,24.180,100.973,10,140
55999,0.355,-0.352,9.790,0.005,0.259,1.595,24.158,100.923,10,140
56049,0.452,-0.257,9.738,2.088,-0.437,-2.092,24.045,100.950,10,140
56099,0.398,-0.022,9.784,-0.738,2.399,-0.722,24.184,100.952,10,140
56149,0.319,-0.227,9.839,-0.731,-1.053,-0.237,24.079,100.953,10,140
56199,0.302,-0.230,9.780,-0.377,2.574,-0.048,24.082,100.947,10,140
56249,0.369,-0.222,9.786,-0.419,0.212,0.551,24.134,100.933,10,140
56299,0.166,-0.508,9.898,1.626,1.914,0.180,24.169,100.949,10,140
56349,0.277,-0.380,9.712,-0.923,1.341,2.450,24.088,100.953,10,140
56399,0.324,-0.290,9.601,-1.165,-2.191,-0.510,24.104,100.948,10,140
56449,0.271,-0.142,9.694,1.292,-2.543,0.055,24.131,100.942,10,140
56499,0.104,-0.124,9.724,1.131,1.110,-0.049,24.112,100.960,10,140
56549,0.335,-0.309,9.823,0.788,0.262,0.242,24.104,100.949,10,140
56599,0.181,-0.367,9.935,-0.993,0.291,-2.284,24.120,100.941,10,140
56649,0.639,-0.319,9.690,1.367,1.657,-3.187,24.125,100.958,10,140
56699,0.148,-0.119,9.742,-1.532,-0.566,-0.731,24.043,100.972,10,140
56749,0.238,-0.287,9.903,-0.151,1.946,-0.441,24.130,100.951,10,140
56799,0.310,-0.224,9.791,2.454,-1.057,-0.857,24.095,100.955,10,140
56849,0.338,-0.090,9.647,0.343,-0.306,-0.470,24.120,100.930,10,140
56899,0.323,-0.183,9.636,-0.185,2.262,-0.621,24.142,100.947,10,140
56949,0.196,-0.307,9.757,1.890,1.170,-1.093,24.162,100.948,10,140
56999,0.210,-0.149,9.697,-2.376,1.880,-2.757,24.139,100.935,10,140
57049,0.287,-0.223,9.752,-3.287,-0.204,-0.097,24.068,100.949,10,140
57099,0.407,-0.283,9.833,-1.746,0.526,0.908,24.235,100.959,10,140
57149,0.341,-0.035,9.688,1.549,-0.845,-0.955,24.167,100.952,10,140
57199,0.445,-0.367,9.835,-0.813,-0.435,-2.855,24.159,100.952,10,140
57249,0.177,-0.355,9.703,2.034,-0.179,-0.523,24.138,100.950,10,140
57299,0.319,-0.112,9.843,1.271,-1.785,0.069,24.096,100.951,10,140
57349,0.288,-0.271,9.765,1.377,-0.832,-1.850,24.143,100.959,10,140
57399,0.262,-0.182,9.709,-0.310,1.618,1.170,24.122,100.947,10,140
57449,0.106,-0.160,9.859,1.544,2.957,0.549,24.162,100.939,10,140
57499,0.433,-0.096,9.964,0.990,0.664,2.170,24.083,100.956,10,140
57549,0.419,-0.286,9.674,0.641,0.188,0.899,24.147,100.943,10,140
57599,0.334,-0.066,9.767,-0.405,-1.637,1.209,24.211,100.937,10,140
57649,0.383,-0.091,9.744,-0.527,-1.510,-1.127,24.124,100.956,10,140
57699,0.309,-0.096,9.832,-1.687,2.146,1.756,24.082,100.967,10,140
57749,0.350,-0.179,10.029,-3.625,-2.319,1.069,24.105,100.941,10,140
57799,0.470,-0.138,9.663,-0.932,1.271,2.646,24.019,100.953,10,140
57849,0.253,-0.394,9.791,-2.305,-0.745,2.407,24.142,100.958,10,140
57899,0.366,-0.152,9.922,-1.661,-0.481,1.294,24.082,100.946,10,140
57949,0.437,-0.016,9.741,-1.143,0.906,0.449,24.085,100.956,10,140
57999,0.362,-0.182,10.149,2.046,1.250,1.556,24.262,100.961,10,140
58049,0.216,-0.155,9.820,-0.771,0.441,0.429,24.115,100.946,10,140
58099,0.394,-0.375,9.906,0.076,0.465,-3.420,24.200,100.934,10,140
58149,0.200,-0.117,9.742,-0.534,-3.212,-0.577,24.129,100.957,10,140
58199,0.266,-0.166,9.862,-0.924,-1.037,2.943,24.077,100.963,10,140
58249,0.308,-0.021,9.738,0.827,0.553,-0.267,24.134,100.943,10,140
58299,0.290,-0.237,9.900,-0.066,-1.979,-0.479,24.114,100.942,10,140
58349,0.453,-0.144,9.909,-1.056,-0.518,1.550,24.049,100.954,10,140
58399,0.310,-0.249,9.822,-1.515,0.398,-1.722,24.056,100.964,10,140
58449,0.219,-0.435,9.924,-1.069,-5.118,-0.017,24.165,100.954,10,140
58499,0.498,-0.205,9.881,-1.416,0.309,2.325,24.144,100.952,10,140
58549,0.071,-0.234,9.663,1.215,-1.020,0.603,24.070,100.969,10,140
58599,0.164,-0.175,10.116,0.387,-1.218,0.977,24.168,100.959,10,140
58649,0.072,-0.166,9.566,2.874,0.176,-0.610,24.153,100.955,10,140
58699,0.162,-0.002,9.784,-2.529,2.143,2.341,24.182,100.956,10,140
58749,0.196,-0.082,10.028,1.280,2.446,-1.075,24.170,100.960,10,140
58799,0.127,-0.380,9.729,0.196,0.748,-0.259,24.117,100.949,10,140
58849,0.310,-0.122,9.871,-0.004,0.463,-0.592,24.160,100.946,10,140
58899,0.492,-0.193,9.845,-1.052,-0.434,0.324,24.121,100.944,10,140
58949,0.165,-0.185,9.831,0.897,1.936,-0.385,24.022,100.949,10,140
58999,0.085,-0.340,9.933,0.925,-0.879,-0.865,24.116,100.933,10,140
59049,0.357,-0.231,10.028,-1.498,1.578,-0.934,24.172,100.941,10,140
59099,0.387,-0.241,9.717,-0.141,0.794,0.687,24.200,100.959,10,140
59149,-0.008,-0.236,9.580,-0.489,1.015,-1.913,24.062,100.952,10,140
59199,0.267,-0.004,9.851,0.880,2.699,-0.664,24.121,100.941,10,140
59249,0.331,-0.068,9.974,0.032,-0.976,-1.059,24.052,100.952,10,140
59299,0.461,-0.467,9.558,2.185,-2.319,0.584,24.059,100.958,10,140
59349,0.393,-0.169,9.911,0.168,0.937,2.824,24.177,100.944,10,140
59399,0.207,-0.217,9.787,0.204,-0.808,1.075,24.124,100.954,10,140
59449,0.303,-0.116,9.674,2.469,0.621,0.776,24.153,100.962,10,140
59499,0.389,-0.160,9.794,-2.358,0.429,-0.360,24.107,100.975,10,140
59549,0.084,-0.181,9.958,1.552,1.971,-1.788,24.075,100.957,10,140
59599,0.268,0.014,9.843,0.410,0.778,-0.289,24.129,100.944,10,140
59649,0.299,-0.243,9.846,-2.002,-2.114,0.813,24.135,100.941,10,140
59699,0.277,-0.310,10.057,-2.217,2.696,-1.107,24.145,100.948,10,140
59749,0.260,-0.076,9.913,-0.304,-1.233,3.239,24.194,100.952,10,140
59799,0.270,-0.151,9.827,1.926,-1.315,0.164,24.085,100.964,10,140
59849,0.517,-0.196,9.881,2.243,-0.315,-1.266,24.176,100.956,10,140
59899,0.280,-0.014,9.845,-2.535,0.655,0.047,24.218,100.951,10,140
59949,0.281,-0.134,9.846,-1.975,0.317,-0.354,24.195,100.975,10,140
59999,0.173,-0.299,9.718,-0.847,-0.897,0.219,24.179,100.938,10,140
60049,0.124,-0.402,9.948,2.130,-2.163,-2.307,24.131,100.962,10,140
60099,0.425,-0.162,9.898,0.631,-0.691,3.004,24.125,100.940,10,140
60149,0.250,-0.367,9.820,1.786,-1.757,1.833,24.230,100.955,10,140
60199,0.169,-0.285,9.778,-1.781,-1.734,-0.248,24.116,100.957,10,140
60249,0.164,0.035,9.943,1.479,-0.835,2.753,24.108,100.969,10,140
60299,0.432,-0.291,9.764,2.951,1.646,-0.090,24.136,100.953,10,140
60349,0.214,-0.208,9.740,-0.501,0.843,-1.294,24.162,100.952,10,140
60399,0.395,-0.080,9.965,1.087,1.205,-0.127,24.154,100.942,10,140
60449,0.276,-0.097,9.812,0.813,-1.445,2.198,24.097,100.955,10,140
60499,0.303,-0.075,9.773,-1.361,-2.710,-0.318,24.066,100.956,10,140
60549,0.475,-0.447,9.666,0.607,1.999,0.602,24.142,100.956,10,140
60599,0.373,0.009,9.890,-1.725,-0.569,0.458,24.085,100.948,10,140
60649,0.243,-0.268,9.900,-0.444,-1.503,-0.936,24.128,100.972,10,140
60699,0.336,-0.010,9.876,-3.097,0.713,-1.143,24.058,100.940,10,140
60749,0.517,-0.372,9.744,1.888,1.144,-2.440,24.121,100.946,10,140
60799,0.282,-0.096,9.749,-0.343,2.343,-2.643,24.107,100.956,10,140
60849,0.157,-0.260,9.662,0.373,-0.803,1.326,24.178,100.951,10,140
60899,0.260,-0.155,9.824,-1.702,1.756,0.478,24.166,100.937,10,140
60949,0.409,0.064,9.890,-2.056,0.191,0.046,24.137,100.949,10,140
60999,0.364,-0.241,9.844,-0.908,0.283,1.639,24.102,100.958,10,140
61049,0.199,-0.230,9.789,2.018,-1.028,1.975,24.053,100.949,10,140
61099,0.413,-0.103,9.697,-1.722,1.458,-1.781,24.156,100.946,10,140
61149,0.303,0.089,10.001,1.401,-1.959,0.612,24.129,100.950,10,140
61199,0.463,-0.391,9.854,0.317,-1.013,2.743,24.063,100.951,10,140
61249,0.313,-0.447,9.646,-1.347,1.318,1.558,24.157,100.953,10,140
61299,0.042,-0.161,9.755,1.899,2.164,3.517,24.163,100.959,10,140
61349,0.181,-0.177,9.669,1.481,-1.695,-0.207,24.085,100.946,10,140
61399,0.358,-0.254,9.842,-1.408,2.239,-0.863,24.178,100.972,10,140
61449,0.013,-0.305,9.791,1.894,-0.623,0.690,24.090,100.956,10,140
61499,0.158,-0.087,9.458,-2.768,2.883,0.374,24.081,100.973,10,140
61549,0.429,-0.052,9.765,1.058,0.883,-2.421,24.157,100.949,10,140
61599,0.457,-0.031,9.738,-0.815,0.400,1.108,24.106,100.950,10,140
61649,0.376,-0.137,9.954,0.471,-1.252,-2.595,24.168,100.947,10,140
61699,0.261,-0.223,9.626,-0.496,-3.885,-0.514,24.081,100.969,10,140
61749,0.356,-0.214,9.834,1.221,-1.060,-0.252,24.109,100.976,10,140
61799,0.311,-0.425,9.911,4.075,-1.371,5.449,24.124,100.961,10,140
61849,0.234,-0.221,9.666,-1.529,-3.204,1.860,24.068,100.954,10,140
61899,0.342,-0.267,9.820,-0.051,-0.669,0.171,24.130,100.940,10,140
61949,0.145,-0.292,9.829,2.228,2.363,0.577,24.176,100.952,10,140
61999,0.435,-0.173,9.861,-0.350,0.081,3.026,24.065,100.951,10,140
62049,0.229,-0.073,10.034,-0.395,-4.207,1.040,24.159,100.933,10,140
62099,0.272,-0.198,9.532,1.132,0.767,0.455,24.072,100.943,10,140
62149,0.224,-0.131,9.693,2.355,0.669,-3.304,24.214,100.952,10,140
62199,0.233,-0.177,9.590,0.374,-3.747,-1.515,24.197,100.964,10,140
62249,0.258,-0.308,9.926,-0.004,0.404,1.049,24.071,100.959,10,140
62299,0.041,-0.012,9.620,-0.910,-0.974,1.205,24.166,100.954,10,140
62349,0.366,-0.134,9.803,-2.919,-3.536,-3.530,24.124,100.948,10,140
62399,0.282,-0.164,9.783,-1.502,-2.289,-2.908,24.190,100.960,10,140
62449,0.133,-0.225,9.865,2.550,-0.887,0.328,24.187,100.932,10,140
62499,0.208,-0.197,9.722,3.361,1.410,0.358,24.077,100.959,10,140
62549,0.376,-0.256,9.757,-2.243,-0.074,1.404,24.179,100.956,10,140
62599,0.399,-0.265,9.752,1.932,0.751,-1.200,24.153,100.959,10,140
62649,0.385,-0.180,9.747,0.668,2.696,0.272,24.092,100.954,10,140
62699,0.146,-0.165,9.773,1.539,0.201,1.682,24.247,100.948,10,140
62749,0.195,-0.137,9.799,0.260,-0.904,0.906,24.130,100.928,10,140
62799,0.268,-0.152,9.954,-0.866,-1.218,1.830,24.095,100.951,10,140
62849,0.355,-0.103,9.810,-1.702,1.611,-0.644,24.100,100.971,10,140
62899,0.404,-0.323,9.750,-0.351,-1.136,-2.957,24.169,100.958,10,140
62949,0.326,-0.243,9.835,1.025,-1.593,-0.487,24.098,100.957,10,140
62999,0.328,-0.352,9.734,2.779,-1.482,0.263,24.094,100.963,10,140
63049,0.289,-0.247,9.665,-0.355,1.315,1.072,24.058,100.966,10,140
63099,0.266,-0.323,9.824,-0.943,-0.876,-0.960,24.122,100.945,10,140
63149,0.087,-0.131,9.745,1.877,0.851,0.977,24.136,100.964,10,140
63199,0.256,-0.316,9.850,-4.204,-0.555,0.350,24.105,100.963,10,140
63249,0.381,-0.181,9.759,1.714,-1.037,-0.630,24.166,100.956,10,140
63299,0.543,-0.221,9.579,1.035,1.962,-0.243,24.208,100.968,10,140
63349,0.214,-0.254,9.655,0.852,1.124,0.948,24.063,100.942,10,140
63399,0.121,-0.391,9.644,-2.441,-0.275,0.663,24.159,100.950,10,140
63449,0.213,-0.197,9.876,-0.453,0.087,-0.469,24.100,100.950,10,140
63499,0.159,-0.068,9.617,0.715,-2.104,2.337,24.172,100.942,10,140
63549,0.240,-0.333,9.800,0.636,3.949,-2.110,24.191,100.944,10,140
63599,0.328,-0.090,9.873,0.653,-0.304,-0.013,24.135,100.962,10,140
63649,0.116,-0.256,9.656,-1.488,-1.232,1.694,24.238,100.964,10,140
63699,0.151,-0.187,9.669,0.687,1.961,0.906,24.172,100.948,10,140
63749,0.056,-0.436,9.795,0.886,1.959,-0.537,24.131,100.953,10,140
63799,0.423,-0.205,9.674,1.668,0.633,0.589,24.062,100.950,10,140
63849,0.086,-0.439,9.778,-0.671,0.874,2.221,24.126,100.968,10,140
63899,0.223,-0.104,9.653,0.194,-0.488,-0.323,24.158,100.931,10,140
63949,0.308,-0.294,9.821,0.605,-0.572,-0.574,24.069,100.956,10,140
63999,0.213,-0.143,9.634,2.105,-1.573,1.780,24.105,100.956,10,140
64049,0.277,-0.114,9.807,1.954,1.033,1.048,24.214,100.943,10,140
64099,0.451,-0.188,9.628,0.735,-0.314,2.596,24.103,100.951,10,140
64149,0.322,-0.426,9.868,-1.530,2.165,2.563,24.128,100.934,10,140
64199,0.316,-0.175,9.894,-0.456,-1.831,-0.219,24.081,100.968,10,140
64249,0.209,-0.275,9.801,-1.908,-0.686,-0.208,24.103,100.947,10,140
64299,0.444,-0.144,9.645,-0.661,1.148,-1.001,24.133,100.950,10,140
64349,0.358,-0.218,9.790,-1.321,0.553,-1.427,24.218,100.950,10,140
64399,0.267,-0.101,9.796,0.136,-0.081,-1.115,24.082,100.943,10,140
64449,0.431,-0.272,9.758,-0.690,1.072,3.044,24.082,100.956,10,140
64499,0.309,-0.233,9.868,-1.953,1.279,0.339,24.078,100.966,10,140
64549,0.397,-0.056,9.631,-0.417,-0.803,0.962,24.198,100.930,10,140
64599,0.297,-0.211,9.927,-0.062,-1.953,-0.298,24.076,100.942,10,140
64649,0.299,-0.254,9.840,-2.328,3.561,1.935,24.166,100.937,10,140
64699,0.034,-0.300,9.779,3.423,2.004,-0.806,24.191,100.963,10,140
64749,0.296,-0.050,9.846,-1.005,-1.802,-0.189,24.181,100.936,10,140
64799,0.100,-0.130,9.480,2.795,-0.675,1.124,24.225,100.935,10,140
64849,0.168,0.074,9.772,-0.196,0.348,1.621,24.197,100.951,10,140
64899,0.254,-0.201,9.843,2.009,0.208,2.792,24.086,100.955,10,140
64949,0.505,-0.041,9.847,-1.354,-1.092,-0.240,24.146,100.947,10,140
64999,0.119,-0.285,9.869,1.281,-2.146,-0.559,24.044,100.944,10,140
65049,0.720,-0.188,9.765,-0.903,-1.856,-2.851,24.128,100.947,10,140
65099,0.472,-0.393,9.859,2.057,-3.002,1.009,24.048,100.955,10,140
65149,0.472,-0.197,9.841,-1.064,0.444,1.737,24.121,100.949,10,140
65199,0.341,-0.097,9.610,0.092,-1.050,0.762,24.183,100.953,10,140
65249,0.450,-0.315,9.758,-1.517,0.092,0.148,24.120,100.938,10,140
65299,0.285,-0.249,9.879,-0.413,1.786,0.356,24.036,100.948,10,140
65349,0.122,-0.079,9.979,-0.040,0.682,-2.217,24.016,100.944,10,140
65399,0.264,-0.378,9.818,0.482,0.989,2.380,24.172,100.946,10,140
65449,0.307,-0.124,9.681,2.040,1.387,-0.344,24.098,100.989,10,140
65499,0.396,-0.083,10.024,1.511,0.328,1.085,24.084,100.957,10,140
65549,0.109,-0.145,9.874,-2.386,2.955,-1.757,24.185,100.945,10,140
65599,0.333,-0.274,10.108,1.598,2.795,1.220,24.167,100.952,10,140
65649,0.267,-0.121,9.828,-0.208,-2.089,-0.444,24.163,100.945,10,140
65699,0.338,-0.211,9.685,-1.358,-1.107,-0.414,24.119,100.962,10,140
65749,0.166,-0.440,9.892,-0.666,-0.148,3.956,24.208,100.956,10,140
65799,0.411,-0.179,9.925,-0.899,-1.055,-0.678,24.214,100.966,10,140
65849,0.224,-0.053,9.791,1.697,-0.444,1.517,24.128,100.947,10,140
65899,0.295,-0.173,9.740,-2.057,2.657,-0.555,24.040,100.927,10,140
65949,-0.040,-0.266,9.975,-2.462,-0.442,-2.777,24.190,100.954,10,140
65999,0.338,-0.029,10.010,1.644,-0.835,-1.985,24.080,100.932,10,140
66049,0.517,-0.215,9.827,0.362,3.173,-0.808,24.195,100.954,10,140
66099,0.281,-0.424,9.923,-1.087,-0.647,0.410,24.139,100.962,10,140
66149,0.218,-0.171,9.845,0.103,1.113,-0.329,24.196,100.943,10,140
66199,0.125,-0.196,9.955,-0.732,-0.905,-0.470,24.143,100.949,10,140
66249,0.337,-0.399,9.993,0.964,-1.265,2.183,24.158,100.966,10,140
66299,0.157,0.010,9.817,-3.113,1.227,-0.402,24.083,100.948,10,140
66349,0.064,-0.120,9.786,-0.353,2.249,0.118,24.101,100.941,10,140
66399,0.292,-0.062,9.741,-1.539,1.489,0.156,24.134,100.972,10,140
66449,0.152,-0.167,9.596,-0.400,0.971,1.802,24.070,100.959,10,140
66499,0.394,-0.206,10.110,0.064,-1.297,0.721,24.039,100.966,10,140
66549,0.419,-0.240,9.886,0.891,3.051,-0.888,24.069,100.929,10,140
66599,0.263,-0.381,9.791,0.696,-0.620,-1.396,24.197,100.948,10,140
66649,0.327,-0.076,9.653,-1.362,3.920,-0.182,24.082,100.948,10,140
66699,0.230,-0.340,9.762,0.031,0.040,0.893,24.046,100.935,10,140
66749,0.395,-0.245,9.959,0.531,-2.116,0.890,24.083,100.953,10,140
66799,0.448,0.065,9.803,1.139,0.525,1.283,24.004,100.946,10,140
66849,0.334,-0.134,9.720,1.335,1.765,0.170,24.124,100.947,10,140
66899,0.316,-0.048,9.993,-0.663,-1.372,-1.160,24.186,100.953,10,140
66949,0.335,-0.133,9.857,-0.126,-1.541,-0.889,24.142,100.954,10,140
66999,0.254,-0.241,9.977,-0.656,0.404,-0.427,24.092,100.935,10,140
67049,0.234,-0.290,9.914,-1.703,-0.572,1.069,24.130,100.955,10,140
67099,0.400,-0.391,9.762,-1.413,2.133,-0.118,24.162,100.968,10,140
67149,0.256,-0.182,9.861,-0.347,1.986,1.315,24.188,100.951,10,140
67199,0.258,-0.234,9.768,-2.452,0.616,1.305,24.136,100.945,10,140
67249,0.303,-0.164,9.851,2.807,-1.247,0.616,24.172,100.951,10,140
67299,0.271,-0.314,9.740,1.136,2.274,-0.941,24.161,100.956,10,140
67349,0.419,-0.162,9.864,1.420,-1.714,0.129,24.047,100.930,10,140
67399,0.201,-0.375,9.872,1.567,-0.407,-0.154,24.125,100.948,10,140
67449,0.315,-0.150,9.756,-1.138,-0.734,1.270,24.115,100.965,10,140
67499,0.270,-0.029,9.669,-0.997,0.777,0.793,24.129,100.971,10,140
67549,0.307,-0.158,9.743,2.557,1.347,0.676,24.054,100.954,10,140
67599,0.243,-0.146,9.919,-1.079,0.379,1.377,24.145,100.947,10,140
67649,0.173,-0.271,9.660,1.540,0.207,-1.783,24.137,100.937,10,140
67699,-0.090,-0.049,9.949,-2.173,-1.033,0.359,24.118,100.942,10,140
67749,0.237,-0.221,9.745,0.364,-0.302,-1.099,24.138,100.934,10,140
67799,0.468,-0.398,9.800,0.556,0.668,0.437,24.200,100.939,10,140
67849,0.289,-0.175,9.752,-0.849,1.976,-1.028,24.113,100.948,10,140
67899,0.272,-0.174,9.786,0.601,0.244,0.760,24.206,100.942,10,140
67949,0.491,-0.246,9.888,0.279,-0.406,-2.902,24.218,100.943,10,140
67999,0.205,-0.068,9.818,2.884,2.555,1.097,24.150,100.958,10,140
68049,0.142,-0.173,9.827,-0.670,0.415,-2.149,24.182,100.963,10,140
68099,0.145,-0.176,9.990,0.659,-1.507,-1.442,24.180,100.968,10,140
68149,0.170,-0.189,9.718,-0.393,0.492,-0.031,24.103,100.971,10,140
68199,0.278,-0.215,9.939,0.049,-0.271,1.444,24.086,100.958,10,140
68249,0.417,-0.116,9.788,0.018,-2.526,-0.164,24.152,100.959,10,140
68299,0.313,-0.239,9.711,-0.039,0.229,1.828,24.138,100.945,10,140
68349,0.284,-0.250,9.782,-3.250,-2.338,-1.746,24.161,100.949,10,140
68399,0.314,-0.059,9.687,1.724,0.598,-1.032,24.211,100.936,10,140
68449,0.165,-0.218,9.856,-0.257,-3.141,-0.416,24.134,100.975,10,140
68499,0.456,-0.180,9.682,0.533,-1.703,0.326,24.156,100.946,10,140
68549,0.325,-0.233,9.742,2.298,0.886,-0.430,24.100,100.952,10,140
68599,0.362,-0.095,9.980,0.707,-1.634,3.030,24.195,100.958,10,140
68649,0.451,-0.367,9.765,-0.734,1.784,-1.725,24.122,100.965,10,140
68699,0.371,-0.239,10.027,-1.945,0.692,-0.315,24.163,100.947,10,140
68749,0.199,-0.170,9.655,0.805,-0.453,1.384,24.116,100.944,10,140
68799,0.342,-0.051,9.568,0.195,0.944,-2.084,24.095,100.956,10,140
68849,0.200,-0.269,10.007,-1.377,-1.260,-3.405,24.084,100.938,10,140
68899,0.494,-0.054,9.661,2.922,1.155,-0.251,24.178,100.954,10,140
68949,0.207,-0.399,9.702,0.006,-0.513,-1.080,24.186,100.940,10,140
68999,0.399,-0.251,9.820,-1.644,0.000,-1.145,24.052,100.950,10,140
69049,0.289,-0.099,9.841,-1.488,-0.896,-3.662,24.083,100.963,10,140
69099,0.471,-0.107,9.843,0.879,0.730,-2.555,24.095,100.962,10,140
69149,0.432,-0.167,9.771,-0.560,-0.795,-1.362,24.044,100.952,10,140
69199,0.242,-0.220,10.006,0.885,-1.031,0.868,24.064,100.960,10,140
69249,0.325,-0.218,9.874,2.165,-0.680,-1.456,24.243,100.950,10,140
69299,0.469,-0.274,9.851,-0.943,0.947,-0.403,24.106,100.965,10,140
69349,0.334,-0.432,9.780,-1.355,-1.803,-0.860,24.115,100.950,10,140
69399,0.202,-0.413,9.745,1.312,-2.025,0.924,24.162,100.946,10,140
69449,0.331,-0.283,9.760,-1.516,0.696,2.043,24.105,100.962,10,140
69499,0.045,-0.299,9.689,2.566,-0.878,1.164,24.037,100.951,10,140
69549,0.361,-0.200,9.488,0.265,1.211,1.972,24.159,100.933,10,140
69599,0.270,-0.090,9.711,0.845,-0.714,0.139,24.177,100.943,10,140
69649,0.630,-0.178,9.847,-1.108,0.094,-0.400,24.067,100.935,10,140
69699,0.328,-0.206,9.498,-3.211,-0.462,-0.103,24.170,100.938,10,140
69749,0.364,-0.232,9.747,-0.212,1.478,0.836,24.184,100.943,10,140
69799,0.261,-0.333,9.742,-0.595,-0.698,1.070,24.161,100.958,10,140
69849,0.309,-0.070,9.820,1.448,0.754,1.103,24.136,100.938,10,140
69899,0.124,0.034,9.852,0.665,-0.250,-0.688,24.283,100.939,10,140
69949,0.287,-0.202,9.674,-1.908,-1.055,-0.516,24.116,100.958,10,140
69999,0.155,-0.149,9.979,1.339,-1.709,-4.430,24.182,100.955,10,140
70049,0.225,-0.045,9.759,0.162,-1.557,0.479,24.119,100.945,10,140
70099,0.421,-0.171,9.631,1.037,1.255,-1.248,24.121,100.951,10,140
70149,0.265,-0.182,9.883,-0.738,3.121,-1.068,24.113,100.970,10,140
70199,0.575,-0.192,9.785,-1.609,1.714,0.260,24.098,100.954,10,140
70249,0.455,-0.115,10.067,1.739,0.661,-0.049,24.168,100.962,10,140
70299,0.395,-0.072,9.833,1.150,1.823,-0.248,24.076,100.967,10,140
70349,0.363,-0.248,9.834,-0.371,-2.558,-0.275,24.070,100.952,10,140
70399,0.281,-0.063,9.793,0.561,-0.448,-0.570,24.071,100.960,10,140
70449,0.314,-0.265,9.831,-0.622,-1.086,0.374,24.202,100.947,10,140
70499,0.127,-0.268,10.018,-1.217,1.782,-0.358,24.178,100.949,10,140
70549,0.109,-0.245,10.055,-0.198,0.847,-0.504,24.135,100.953,10,140
70599,0.350,0.065,9.805,-0.269,-0.992,-1.968,24.061,100.957,10,140
70649,0.075,-0.031,9.908,-0.440,-1.728,0.045,24.143,100.961,10,140
70699,0.207,-0.240,9.801,-0.412,-0.932,-2.568,24.060,100.943,10,140
70749,0.268,-0.078,10.079,2.576,0.598,2.822,24.136,100.945,10,140
70799,0.567,-0.321,9.758,-0.389,2.194,-0.886,24.181,100.946,10,140
70849,0.151,-0.168,9.827,-1.727,-1.292,-1.183,24.190,100.955,10,140
70899,0.323,-0.138,9.751,0.723,-0.900,-1.990,24.107,100.952,10,140
70949,0.305,-0.071,9.609,-0.321,0.601,-1.434,24.155,100.946,10,140
70999,0.162,-0.063,9.644,1.510,-0.611,-1.400,24.098,100.943,10,140
71049,0.195,-0.164,9.588,1.870,1.263,2.092,24.093,100.927,10,140
71099,0.222,-0.215,9.843,-0.765,-0.114,0.237,24.065,100.968,10,140
71149,0.163,-0.164,9.935,-1.159,0.019,2.463,24.129,100.961,10,140
71199,0.330,-0.168,9.892,-0.330,-0.297,1.459,24.156,100.955,10,140
71249,0.155,-0.193,9.951,1.368,0.536,-0.755,24.113,100.955,10,140
71299,0.463,-0.189,9.962,-0.427,1.823,-1.476,24.153,100.939,10,140
71349,0.374,-0.127,9.697,-1.093,-0.641,-2.208,24.097,100.942,10,140
71399,0.388,-0.032,9.756,-0.408,0.343,-0.759,24.130,100.959,10,140
71449,0.323,-0.204,9.741,2.227,-0.897,0.204,24.092,100.944,10,140
71499,0.307,-0.241,9.871,0.125,-2.049,-3.435,24.193,100.944,10,140
71549,0.470,-0.193,9.719,0.858,-0.384,0.040,24.097,100.957,10,140
71599,0.425,-0.256,10.018,-0.831,0.394,-2.430,24.048,100.971,10,140
71649,0.463,-0.060,9.609,0.359,0.649,0.139,24.159,100.941,10,140
71699,0.277,-0.329,9.767,0.576,-1.153,-0.396,24.123,100.950,10,140
71749,0.404,-0.167,9.854,-2.140,-0.526,1.243,24.101,100.946,10,140
71799,0.182,-0.038,9.755,-1.076,0.941,1.663,24.169,100.960,10,140
71849,0.320,-0.210,9.756,-0.747,-0.880,0.565,24.139,100.951,10,140
71899,0.366,-0.202,9.647,-1.173,-1.664,-2.844,24.149,100.938,10,140
71949,0.144,-0.322,9.910,-0.455,1.508,-0.124,24.122,100.956,10,140
71999,0.365,-0.182,9.686,-0.676,-1.762,-0.378,24.149,100.965,10,140
72049,0.461,-0.116,9.919,0.352,4.160,2.296,24.276,100.954,10,140
72099,0.343,-0.072,9.829,0.471,-1.475,1.414,24.151,100.958,10,140
72149,0.269,-0.405,9.866,1.750,-1.916,-1.453,24.129,100.948,10,140
72199,0.094,0.011,9.926,-0.923,-2.716,0.545,24.244,100.958,10,140
72249,0.430,-0.307,9.834,-2.249,2.968,0.854,24.039,100.932,10,140
72299,0.351,-0.180,9.770,0.923,3.011,0.548,24.054,100.948,10,140
72349,0.140,-0.291,9.845,-0.258,-1.601,-0.045,24.104,100.955,10,140
72399,0.265,-0.151,9.774,1.113,-0.214,-0.030,24.116,100.951,10,140
72449,0.085,0.117,9.725,0.134,-0.726,-0.747,24.164,100.945,10,140
72499,0.243,-0.360,9.697,-1.771,2.684,-2.020,24.091,100.952,10,140
72549,0.461,-0.397,9.623,0.166,0.485,-2.145,24.054,100.940,10,140
72599,0.380,-0.203,9.892,-0.185,-0.075,0.895,24.138,100.952,10,140
72649,0.185,-0.269,9.860,-0.388,-1.150,0.958,24.172,100.950,10,140
72699,0.203,-0.093,10.098,-1.263,-2.343,-1.201,24.098,100.937,10,140
72749,0.153,-0.099,9.905,2.187,1.086,-0.750,24.199,100.944,10,140
72799,0.251,-0.337,9.948,1.479,-0.732,-0.503,24.146,100.952,10,140
72849,0.391,-0.191,9.851,-2.289,-0.492,-2.729,24.233,100.964,10,140
72899,0.375,-0.069,10.039,1.367,-2.430,-0.353,24.027,100.942,10,140
72949,0.144,-0.201,9.849,-1.438,-0.471,0.372,24.136,100.948,10,140
72999,0.008,-0.252,9.896,0.337,-2.274,-0.460,24.158,100.940,10,140
73049,0.369,-0.295,9.764,-0.217,3.286,-0.535,24.116,100.957,10,140
73099,0.235,-0.178,9.537,0.392,-0.084,-1.990,24.212,100.947,10,140
73149,0.267,-0.355,9.611,-0.908,-2.340,0.680,24.188,100.943,10,140
73199,0.100,-0.247,9.677,0.193,0.212,-0.697,24.148,100.960,10,140
73249,0.490,-0.262,9.887,-0.416,-1.646,1.863,24.164,100.951,10,140
73299,0.331,-0.220,9.678,2.602,1.288,0.333,24.193,100.962,10,140
73349,0.266,-0.132,9.764,0.905,-0.443,3.589,24.127,100.955,10,140
73399,0.344,-0.240,9.912,-0.188,-0.680,-0.060,24.107,100.962,10,140
73449,0.363,-0.085,9.643,0.344,-1.216,0.067,24.209,100.952,10,140
73499,0.269,-0.069,9.921,2.710,-2.853,0.429,24.124,100.941,10,140
73549,0.303,-0.338,9.539,-1.416,-0.454,2.738,24.109,100.938,10,140
73599,0.057,-0.242,9.774,0.160,-2.231,-1.205,24.032,100.951,10,140
73649,0.105,-0.524,9.938,0.696,0.465,0.464,24.093,100.960,10,140
73699,0.166,0.024,9.828,-2.828,1.242,2.898,24.133,100.960,10,140
73749,0.264,-0.275,9.498,1.794,-0.728,0.510,24.089,100.941,10,140
73799,0.421,-0.246,9.755,-1.950,0.256,1.110,24.123,100.948,10,140
73849,0.146,-0.035,9.729,-0.290,2.472,-0.397,24.068,100.940,10,140
73899,0.248,0.010,9.829,-0.392,1.194,1.910,24.108,100.964,10,140
73949,0.392,-0.147,9.523,0.247,2.052,-0.460,24.262,100.950,10,140
73999,0.170,-0.130,9.838,1.213,-0.379,1.923,24.119,100.951,10,140
74049,0.143,-0.294,9.828,-1.032,-0.719,-0.352,24.160,100.957,10,140
74099,0.382,-0.078,9.828,-0.862,-2.436,-0.562,24.107,100.931,10,140
74149,0.487,-0.417,9.846,0.807,-0.390,3.886,24.148,100.942,10,140
74199,0.501,-0.294,9.633,-1.559,-1.008,0.036,24.164,100.934,10,140
74249,0.333,0.067,9.719,-0.234,1.023,1.798,24.114,100.940,10,140
74299,0.171,-0.068,9.911,-3.326,-3.288,-1.916,24.071,100.954,10,140
74349,0.318,0.035,9.899,0.152,1.763,-1.391,24.077,100.950,10,140
74399,0.404,-0.392,9.911,1.275,-0.796,0.225,24.134,100.951,10,140
74449,0.388,-0.295,9.928,1.293,1.349,-3.034,24.053,100.957,10,140
74499,0.222,-0.281,9.713,-2.078,-0.470,-1.134,24.115,100.955,10,140
74549,0.150,-0.064,9.538,3.788,-2.107,0.855,24.194,100.950,10,140
74599,0.381,-0.212,9.593,0.492,1.711,-0.876,24.062,100.944,10,140
74649,0.330,-0.163,9.936,0.817,0.740,-3.091,24.262,100.950,10,140
74699,0.395,-0.240,9.786,0.058,2.373,2.284,24.180,100.970,10,140
74749,0.244,-0.136,9.750,1.951,0.027,1.468,24.236,100.929,10,140
74799,0.553,-0.160,9.766,-2.957,-0.487,-3.544,24.153,100.948,10,140
74849,0.512,-0.237,9.934,1.767,3.143,-0.399,24.188,100.934,10,140
74899,0.159,-0.230,9.802,-1.882,-0.649,1.060,24.126,100.948,10,140
74949,0.186,-0.031,10.020,0.302,-0.189,2.546,24.174,100.943,10,140
74999,0.131,-0.268,10.071,-0.922,4.433,-0.013,24.139,100.964,10,140
75049,0.264,-0.151,9.681,-1.922,-1.143,0.335,24.116,100.930,10,140
75099,0.351,-0.217,9.772,-0.950,-3.471,2.440,24.125,100.955,10,140
75149,0.462,-0.060,9.831,0.010,0.467,1.392,24.180,100.945,10,140
75199,0.348,-0.151,9.890,0.313,2.106,0.307,24.196,100.950,10,140
75249,0.225,-0.311,9.787,0.823,1.949,-0.140,24.124,100.945,10,140
75299,0.450,-0.183,9.746,1.137,-2.035,0.178,24.148,100.949,10,140
75349,0.155,-0.078,10.010,-2.039,0.183,0.991,24.266,100.946,10,140
75399,0.180,-0.197,10.050,0.106,0.406,2.730,24.041,100.928,10,140
75449,0.404,-0.103,9.639,0.796,0.063,0.334,24.110,100.945,10,140
75499,0.188,-0.190,9.779,2.588,0.966,-2.421,24.172,100.965,10,140
75549,0.328,-0.065,9.803,1.084,-1.438,1.209,24.080,100.963,10,140
75599,0.112,-0.451,9.871,-0.266,0.175,0.658,24.150,100.941,10,140
75649,0.320,-0.154,9.866,3.055,-1.131,0.103,24.180,100.945,10,140
75699,0.150,-0.265,9.935,-0.415,0.941,-1.130,24.174,100.943,10,140
75749,0.193,-0.183,9.813,2.267,-2.499,0.783,24.234,100.964,10,140
75799,0.248,-0.278,9.747,0.463,0.291,0.538,24.182,100.939,10,140
75849,0.158,-0.344,9.645,-0.153,0.479,3.896,24.179,100.950,10,140
75899,0.465,-0.285,9.848,1.498,1.210,0.621,24.134,100.937,10,140
75949,0.276,-0.268,9.890,-0.210,0.864,-2.475,24.202,100.941,10,140
75999,0.106,-0.362,9.731,1.728,1.097,-1.805,24.156,100.949,10,140
76049,0.105,-0.316,9.561,-1.338,-4.076,-1.223,24.104,100.942,10,140
76099,0.195,-0.057,9.765,0.371,1.160,1.384,24.187,100.944,10,140
76149,0.162,-0.290,9.750,0.007,-0.132,1.684,24.147,100.968,10,140
76199,0.418,-0.254,9.910,-4.415,2.115,0.632,24.173,100.933,10,140
76249,0.598,-0.227,9.789,1.728,-0.298,-1.306,24.186,100.940,10,140
76299,0.384,-0.180,9.942,-1.859,1.911,0.450,24.254,100.943,10,140
76349,0.518,-0.111,9.902,-1.116,0.856,1.028,24.110,100.938,10,140
76399,0.201,-0.020,9.825,1.437,0.443,0.178,24.164,100.946,10,140
76449,0.441,-0.175,9.834,-2.123,0.474,-1.036,24.127,100.961,10,140
76499,0.163,-0.220,9.882,1.766,-0.795,0.490,24.168,100.938,10,140
76549,0.037,-0.428,9.879,0.156,-2.056,-0.982,24.133,100.946,10,140
76599,0.290,0.069,9.713,0.219,-1.182,-0.965,24.108,100.948,10,140
76649,0.228,-0.154,9.832,-1.370,2.938,-1.794,24.171,100.972,10,140
76699,0.208,-0.037,9.977,0.518,-2.834,2.176,24.158,100.944,10,140
76749,0.448,-0.283,9.935,-0.842,0.820,-1.651,24.133,100.941,10,140
76799,0.209,-0.174,9.786,0.287,1.964,-0.177,24.059,100.947,10,140
76849,0.304,-0.074,9.931,1.455,-0.350,0.987,24.080,100.963,10,140
76899,0.347,-0.135,9.761,0.084,-1.026,0.867,24.086,100.960,10,140
76949,0.359,0.047,9.802,-0.143,0.295,0.055,24.148,100.939,10,140
76999,0.161,-0.264,9.772,-1.819,-1.779,-0.436,24.192,100.948,10,140
77049,0.376,-0.079,9.899,-0.646,-0.620,-2.857,24.119,100.955,10,140
77099,0.163,-0.033,9.979,-0.565,1.412,-2.172,24.101,100.946,10,140
77149,0.295,-0.218,9.703,3.011,0.446,0.439,24.189,100.952,10,140
77199,0.266,-0.263,9.610,2.289,-1.411,-2.548,24.113,100.934,10,140
77249,0.534,-0.152,9.976,2.227,0.871,0.877,24.118,100.949,10,140
77299,0.222,-0.191,9.723,1.940,1.170,-0.163,24.069,100.957,10,140
77349,0.400,-0.204,9.655,0.662,1.608,-2.935,24.184,100.931,10,140
77399,0.304,0.014,9.818,0.735,-0.492,-0.010,24.275,100.964,10,140
77449,0.256,-0.242,9.809,3.357,0.319,1.702,24.136,100.937,10,140
77499,0.453,-0.205,9.713,-1.059,-1.026,-0.928,24.077,100.962,10,140
77549,0.340,-0.079,9.765,0.530,0.255,1.794,24.197,100.954,10,140
77599,0.216,-0.340,9.711,-0.968,-0.823,-1.888,24.240,100.953,10,140
77649,0.053,-0.327,9.646,0.364,1.627,-1.505,24.187,100.947,10,140
77699,0.432,-0.033,9.844,1.095,-0.005,-0.569,24.096,100.953,10,140
77749,0.286,-0.242,9.798,-0.282,-1.581,-0.804,24.213,100.948,10,140
77799,0.461,-0.334,9.645,0.194,1.180,-0.998,24.187,100.959,10,140
77849,0.422,-0.209,9.801,-2.509,0.035,0.427,24.227,100.937,10,140
77899,0.193,-0.315,9.914,-3.842,-1.644,3.131,24.189,100.937,10,140
77949,0.287,-0.095,9.872,-0.336,-1.202,1.263,24.156,100.958,10,140
77999,0.341,-0.252,9.978,-0.756,0.654,-0.959,24.144,100.947,10,140
78049,0.216,-0.168,9.962,2.818,2.175,-0.261,24.230,100.954,10,140
78099,0.508,-0.346,9.983,-0.906,1.752,-0.705,24.202,100.947,10,140
78149,0.071,-0.311,9.778,0.037,-3.387,-1.812,24.119,100.948,10,140
78199,0.320,-0.294,9.627,0.458,-0.502,1.343,24.130,100.957,10,140
78249,0.189,-0.164,9.817,0.680,-1.411,-0.184,24.114,100.948,10,140
78299,0.368,0.158,9.811,1.081,0.171,1.714,24.180,100.961,10,140
78349,0.336,0.088,9.970,-2.568,0.455,0.121,24.046,100.941,10,140
78399,0.240,-0.283,9.822,-2.703,1.130,1.173,24.175,100.947,10,140
78449,0.295,-0.251,9.943,0.768,3.011,-0.547,24.230,100.944,10,140
78499,0.275,-0.319,9.869,-0.082,0.944,2.254,24.154,100.954,10,140
78549,0.401,-0.202,9.743,0.547,0.767,1.184,24.199,100.943,10,140
78599,0.347,-0.050,9.753,0.556,-0.922,0.262,24.245,100.952,10,140
78649,0.181,-0.155,9.833,1.689,-2.054,-1.368,24.154,100.934,10,140
78699,0.429,-0.434,9.710,-2.211,-0.975,1.216,24.188,100.959,10,140
78749,0.366,-0.435,9.843,-2.765,-0.745,-0.579,24.131,100.955,10,140
78799,0.200,0.009,9.878,1.787,1.152,1.355,24.156,100.970,10,140
78849,0.171,-0.141,9.808,-0.324,0.491,-1.115,24.202,100.958,10,140
78899,0.307,-0.108,9.685,-2.707,-0.859,-0.343,24.283,100.948,10,140
78949,0.417,-0.095,10.056,0.188,0.996,-0.278,24.115,100.940,10,140
78999,0.203,-0.027,9.841,-0.218,0.040,-0.834,24.157,100.950,10,140
79049,0.372,-0.088,9.615,0.363,2.080,-1.520,24.146,100.952,10,140
79099,0.425,-0.125,9.782,0.766,1.572,0.601,24.252,100.954,10,140
79149,0.172,-0.287,9.792,-0.295,0.949,0.548,24.245,100.958,10,140
79199,0.471,-0.285,9.758,1.046,0.157,0.961,24.172,100.944,10,140
79249,0.496,-0.060,9.625,-0.905,0.056,1.042,24.156,100.937,10,140
79299,0.394,-0.219,9.950,0.479,1.528,1.279,24.204,100.945,10,140
79349,0.417,-0.170,9.662,-0.564,-0.477,0.732,24.194,100.939,10,140
79399,0.382,-0.201,9.685,1.281,-1.109,-1.755,24.198,100.959,10,140
79449,0.219,-0.069,9.927,-0.742,3.028,-0.052,24.171,100.926,10,140
79499,0.372,-0.266,9.861,-2.523,1.771,2.220,24.255,100.921,10,140
79549,0.366,-0.152,9.455,-1.052,-0.082,2.176,24.119,100.952,10,140
79599,0.291,-0.149,9.764,1.389,1.508,-1.984,24.217,100.943,10,140
79649,0.266,-0.060,9.823,0.920,1.241,0.958,24.135,100.941,10,140
79699,0.379,-0.102,9.854,-0.216,1.350,0.029,24.093,100.953,10,140
79749,0.359,-0.100,9.708,-1.050,0.572,-0.593,24.159,100.960,10,140
79799,0.347,0.024,9.847,2.643,1.679,3.896,24.164,100.950,10,140
79849,0.455,-0.249,9.760,0.474,0.669,-1.986,24.176,100.948,10,140
79899,0.300,-0.166,9.794,1.722,0.850,-0.155,24.168,100.961,10,140
79949,0.396,-0.037,9.801,0.342,3.139,0.084,24.248,100.959,10,140
79999,0.255,-0.348,9.892,-0.903,-0.908,-2.430,24.224,100.952,10,140
80049,0.309,-0.138,9.847,0.295,0.924,-0.256,24.037,100.958,10,140
80099,0.356,-0.181,10.005,-1.923,-4.155,2.373,24.186,100.935,10,140
80149,0.259,-0.111,9.677,0.983,3.312,2.227,24.164,100.954,10,140
80199,0.196,-0.168,9.780,-1.324,-1.843,3.032,24.170,100.941,10,140
80249,0.257,-0.010,10.008,-0.759,0.447,1.483,24.149,100.939,10,140
80299,0.192,-0.183,9.729,-1.774,-0.196,1.542,24.200,100.949,10,140
80349,0.529,-0.276,9.810,-1.880,1.312,-0.033,24.082,100.943,10,140
80399,0.516,-0.100,9.831,1.438,-2.229,-1.082,24.100,100.943,10,140
80449,0.261,-0.123,9.936,1.604,4.144,-0.589,24.165,100.956,10,140
80499,0.209,-0.218,9.866,-1.171,0.843,1.966,24.110,100.928,10,140
80549,0.315,-0.307,9.838,-0.530,0.591,1.822,24.206,100.947,10,140
80599,0.168,-0.476,9.563,-1.055,0.271,-0.883,24.136,100.935,10,140
80649,0.110,-0.389,9.887,-2.849,1.102,-1.256,24.191,100.953,10,140
80699,0.388,-0.052,9.720,-1.388,-0.600,-1.102,24.196,100.949,10,140
80749,0.298,-0.145,9.754,1.663,-2.717,0.370,24.187,100.942,10,140
80799,0.214,-0.089,9.770,-2.854,-2.002,1.511,24.118,100.963,10,140
80849,0.455,-0.219,9.871,-1.230,-0.599,-1.041,24.191,100.937,10,140
80899,0.279,-0.190,9.867,-3.170,-2.673,-1.318,24.150,100.951,10,140
80949,0.316,0.039,9.882,0.865,-0.740,1.156,24.196,100.957,10,140
80999,0.280,-0.124,9.984,-1.204,-3.237,1.205,24.198,100.948,10,140
81049,0.241,0.125,9.751,-1.837,-0.732,0.727,24.131,100.946,10,140
81099,0.328,-0.248,9.820,-0.086,-1.607,0.083,24.104,100.959,10,140
81149,0.183,-0.226,9.592,-0.691,-1.887,2.197,24.155,100.955,10,140
81199,0.088,-0.343,9.785,-2.049,1.670,-0.630,24.169,100.953,10,140
81249,0.274,-0.108,9.726,0.510,1.746,0.282,24.168,100.946,10,140
81299,0.298,-0.120,9.775,-2.531,0.207,-0.258,24.185,100.950,10,140
81349,0.474,-0.339,9.691,0.928,-1.561,0.444,24.161,100.930,10,140
81399,0.368,-0.040,9.828,-2.109,1.123,-1.578,24.155,100.954,10,140
81449,0.201,-0.395,9.787,-0.107,-1.302,-1.194,24.198,100.949,10,140
81499,0.236,-0.269,9.823,0.092,-0.300,-2.090,24.143,100.944,10,140
81549,0.298,-0.067,9.912,0.893,0.114,-0.524,24.178,100.945,10,140
81599,0.251,-0.297,9.796,-0.164,2.644,0.758,24.143,100.957,10,140
81649,0.236,-0.084,9.892,4.175,-1.633,-0.159,24.156,100.953,10,140
81699,0.372,-0.312,9.720,0.389,1.358,-1.685,24.086,100.961,10,140
81749,0.386,-0.076,9.692,-0.342,0.278,0.589,24.156,100.949,10,140
81799,0.405,-0.250,9.740,-0.675,-0.791,0.139,24.152,100.945,10,140
81849,0.452,-0.166,9.764,1.775,-0.847,-0.053,24.157,100.944,10,140
81899,0.247,-0.191,9.640,-0.613,0.308,0.346,24.176,100.972,10,140
81949,0.365,-0.216,9.789,-0.055,0.574,-0.478,24.234,100.939,10,140
81999,0.361,-0.144,9.674,0.848,0.744,-0.969,24.273,100.956,10,140
82049,0.253,-0.254,9.719,0.316,0.034,-2.072,24.113,100.943,10,140
82099,0.245,-0.241,9.728,0.860,1.299,0.051,24.058,100.948,10,140
82149,0.353,-0.210,9.833,0.090,-2.185,-3.665,24.192,100.945,10,140
82199,0.336,-0.235,9.783,1.895,-1.765,-0.072,24.111,100.950,10,140
82249,0.343,-0.128,9.819,-2.024,0.290,1.214,24.210,100.970,10,140
82299,0.353,-0.315,9.744,0.063,1.433,-1.685,24.206,100.956,10,140
82349,0.193,-0.133,9.717,-0.064,-0.489,0.279,24.107,100.955,10,140
82399,0.047,-0.246,9.739,2.187,0.707,-0.751,24.120,100.950,10,140
82449,0.219,0.049,9.492,0.035,-3.555,1.420,24.125,100.965,10,140
82499,0.229,-0.080,9.825,1.626,-0.024,-4.289,24.129,100.935,10,140
82549,0.395,-0.141,9.803,0.590,0.224,-0.870,24.256,100.952,10,140
82599,0.268,-0.364,9.733,-0.039,-0.310,-0.735,24.161,100.939,10,140
82649,0.291,-0.373,9.706,-1.108,1.182,0.640,24.167,100.939,10,140
82699,0.245,-0.111,9.942,-2.156,-0.669,0.098,24.180,100.950,10,140
82749,0.365,-0.362,9.977,-1.685,0.031,0.693,24.219,100.958,10,140
82799,0.388,-0.057,9.786,1.022,2.151,-1.127,24.098,100.940,10,140
82849,0.449,-0.060,9.763,0.308,0.636,1.459,24.075,100.944,10,140
82899,0.262,-0.163,9.812,-0.490,0.378,-3.711,24.311,100.958,10,140
82949,0.391,-0.273,9.851,2.908,2.572,0.077,24.106,100.951,10,140
82999,0.258,-0.103,9.661,-0.298,0.359,-0.697,24.215,100.939,10,140
83049,0.153,-0.238,9.898,-0.461,-0.875,1.129,24.176,100.945,10,140
83099,0.306,-0.225,9.873,0.180,-1.172,-0.712,24.146,100.953,10,140
83149,0.334,-0.292,9.783,0.417,1.550,0.333,24.259,100.950,10,140
83199,0.375,-0.235,9.693,0.126,0.667,0.438,24.172,100.947,10,140
83249,0.200,-0.232,9.857,1.345,-4.753,0.848,24.217,100.962,10,140
83299,0.335,-0.123,9.754,-0.154,0.729,-1.602,24.128,100.952,10,140
83349,0.142,-0.192,9.637,0.252,0.012,-0.836,24.121,100.945,10,140
83399,0.039,-0.243,9.818,1.704,-0.759,-0.280,24.232,100.966,10,140
83449,0.237,-0.080,9.937,0.714,-1.446,-1.382,24.194,100.972,10,140
83499,0.272,-0.021,10.018,-1.825,-0.890,2.144,24.213,100.955,10,140
83549,0.291,-0.127,9.733,3.574,-1.687,-2.614,24.173,100.964,10,140
83599,0.236,-0.204,9.689,-0.135,-1.492,-1.472,24.096,100.945,10,140
83649,0.502,-0.205,9.826,3.190,-0.942,-1.466,24.191,100.938,10,140
83699,0.330,-0.068,9.682,-0.780,2.419,-1.556,24.134,100.952,10,140
83749,0.256,-0.295,9.985,-0.867,0.449,-0.622,24.155,100.937,10,140
83799,0.397,-0.247,9.949,-1.709,-0.727,0.661,24.172,100.943,10,140
83849,0.276,-0.345,9.811,-3.854,0.220,1.928,24.210,100.958,10,140
83899,0.244,-0.143,9.759,-0.160,-0.174,-4.889,24.211,100.954,10,140
83949,0.387,-0.306,9.883,0.665,-3.254,-2.575,24.169,100.943,10,140
83999,0.290,-0.271,9.974,-2.773,-1.998,-1.440,24.101,100.944,10,140
84049,0.288,-0.350,9.846,1.867,1.552,2.870,24.222,100.950,10,140
84099,0.494,-0.118,10.017,-0.303,-3.060,-1.709,24.176,100.955,10,140
84149,0.269,-0.084,9.675,-1.035,1.409,0.059,24.172,100.963,10,140
84199,0.417,-0.287,9.828,-2.471,-0.029,0.554,24.085,100.965,10,140
84249,0.520,-0.141,9.911,2.162,-0.256,1.499,24.187,100.935,10,140
84299,0.192,-0.261,9.928,0.142,1.425,-0.682,24.107,100.970,10,140
84349,0.603,-0.153,9.784,1.718,-1.598,-0.299,24.100,100.955,10,140
84399,0.322,-0.241,9.733,-2.191,-1.191,1.780,24.152,100.962,10,140
84449,0.196,-0.205,9.755,-0.373,1.115,-2.963,24.205,100.957,10,140
84499,0.295,-0.187,9.782,1.003,0.087,-1.220,24.176,100.959,10,140
84549,0.336,-0.193,9.830,-0.711,-0.661,-2.714,24.160,100.959,10,140
84599,0.250,-0.298,9.908,0.240,0.208,0.683,24.203,100.950,10,140
84649,0.201,0.001,9.813,-1.107,0.270,1.719,24.102,100.963,10,140
84699,0.279,0.029,9.882,-0.147,1.806,1.833,24.153,100.952,10,140
84749,0.237,-0.092,9.649,-0.248,-3.050,0.851,24.063,100.940,10,140
84799,0.324,-0.235,9.757,-1.379,-0.664,-2.505,24.185,100.958,10,140
84849,0.380,-0.200,9.944,0.669,1.377,0.569,24.172,100.943,10,140
84899,-0.001,-0.123,9.794,2.848,-2.828,1.210,24.125,100.950,10,140
84949,0.195,-0.156,9.804,1.260,0.216,0.690,24.231,100.955,10,140
84999,0.280,-0.057,9.795,0.591,-0.450,-0.938,24.027,100.957,10,140
85049,0.166,-0.113,10.009,-1.872,1.263,-0.128,24.192,100.939,10,140
85099,0.298,-0.178,9.968,3.071,0.461,-0.508,24.276,100.949,10,140
85149,0.289,-0.184,9.860,1.028,-0.805,-0.142,24.260,100.965,10,140
85199,0.345,-0.164,9.782,1.482,-0.716,0.197,24.149,100.944,10,140
85249,0.300,-0.194,9.744,-0.070,0.119,-0.647,24.140,100.949,10,140
85299,0.374,-0.070,9.829,-0.361,-0.019,2.749,24.215,100.941,10,140
85349,0.290,-0.253,9.768,-2.377,0.064,-1.911,24.144,100.965,10,140
85399,0.408,-0.291,9.693,-1.275,-2.664,-1.374,24.159,100.940,10,140
85449,0.381,-0.200,9.749,2.523,1.037,0.127,24.260,100.963,10,140
85499,0.217,-0.158,9.760,-2.024,2.738,2.171,24.111,100.955,10,140
85549,0.112,-0.074,9.803,-0.389,1.827,0.042,24.160,100.959,10,140
85599,0.262,-0.096,9.809,1.211,0.927,1.161,24.124,100.968,10,140
85649,0.278,0.004,9.742,-0.364,-0.349,1.690,24.152,100.954,10,140
85699,0.120,-0.248,9.834,-0.127,-2.666,0.749,24.126,100.969,10,140
85749,0.275,0.061,9.884,0.693,-0.663,-0.139,24.194,100.931,10,140
85799,0.409,-0.326,9.780,-3.918,0.685,1.107,24.186,100.953,10,140
85849,0.254,-0.177,9.946,-0.587,0.754,1.080,24.161,100.952,10,140
85899,0.321,-0.250,10.085,-0.599,2.506,1.577,24.074,100.953,10,140
85949,0.414,-0.101,9.706,0.403,-1.711,-1.480,24.161,100.952,10,140
85999,0.479,-0.153,9.929,-1.716,-1.653,-0.679,24.258,100.937,10,140
86049,0.116,-0.203,9.944,-2.345,-0.343,-1.950,24.243,100.957,10,140
86099,0.327,-0.200,9.782,0.224,-0.921,-1.264,24.119,100.950,10,140
86149,0.205,-0.095,9.568,0.848,0.798,1.793,24.161,100.936,10,140
86199,0.190,-0.065,9.773,-0.583,-0.834,-0.076,24.162,100.935,10,140
86249,0.227,-0.079,9.974,-0.161,-0.737,1.996,24.164,100.939,10,140
86299,0.281,-0.115,9.986,-0.695,0.803,-0.466,24.229,100.953,10,140
86349,0.325,-0.308,9.771,-0.458,-5.241,1.264,24.173,100.948,10,140
86399,0.254,-0.192,9.835,-1.894,0.195,0.179,24.175,100.936,10,140
86449,0.279,-0.342,9.848,1.933,1.283,-0.483,24.147,100.945,10,140
86499,0.335,-0.271,9.746,-3.646,-1.229,-1.132,24.147,100.962,10,140
86549,0.140,-0.347,9.876,-1.422,-0.229,0.264,24.174,100.943,10,140
86599,0.400,-0.024,9.693,-0.387,1.380,-0.294,24.125,100.946,10,140
86649,0.390,-0.309,9.836,0.566,-0.942,0.833,24.206,100.960,10,140
86699,0.402,-0.366,9.910,0.858,1.433,-1.230,24.218,100.954,10,140
86749,0.163,-0.050,9.718,-1.469,0.589,-0.870,24.191,100.948,10,140
86799,0.327,-0.102,9.804,1.277,1.246,-1.207,24.216,100.956,10,140
86849,0.311,-0.067,9.997,1.120,-2.122,0.662,24.168,100.947,10,140
86899,0.335,-0.232,9.994,0.418,0.045,1.158,24.213,100.962,10,140
86949,0.368,-0.199,9.824,-3.118,-2.113,1.532,24.159,100.968,10,140
86999,0.501,-0.337,9.844,4.221,-1.122,0.597,24.164,100.948,10,140
87049,0.264,-0.196,9.896,-1.145,0.758,-1.002,24.200,100.953,10,140
87099,0.207,-0.178,9.725,-1.205,1.725,-2.623,24.202,100.957,10,140
87149,0.229,-0.070,9.912,-1.859,0.789,0.705,24.139,100.956,10,140
87199,0.382,-0.276,9.581,0.610,-1.054,-2.476,24.157,100.927,10,140
87249,0.258,-0.023,9.483,0.693,-1.319,-0.574,24.131,100.956,10,140
87299,0.295,-0.283,9.659,-0.597,1.705,-1.743,24.196,100.953,10,140
87349,0.068,-0.068,9.804,3.281,2.562,-0.338,24.168,100.940,10,140
87399,0.139,-0.103,9.780,-0.562,-0.224,1.021,24.222,100.950,10,140
87449,0.274,-0.182,10.046,-3.013,-1.669,0.723,24.183,100.962,10,140
87499,0.447,0.034,9.717,0.929,-0.318,1.454,24.185,100.959,10,140
87549,0.211,-0.175,9.750,-0.351,-0.634,-1.479,24.231,100.953,10,140
87599,0.423,-0.308,9.584,-0.915,-0.188,1.196,24.228,100.962,10,140
87649,0.474,-0.109,9.822,-1.086,1.046,-0.700,24.137,100.956,10,140
87699,0.322,-0.094,9.727,1.761,0.567,-0.211,24.140,100.940,10,140
87749,0.140,-0.031,9.646,0.967,-0.326,-0.809,24.154,100.949,10,140
87799,0.402,-0.128,9.809,-1.980,-2.583,2.787,24.127,100.935,10,140
87849,0.427,-0.366,9.895,1.409,0.403,1.456,24.109,100.938,10,140
87899,0.275,-0.194,9.800,0.721,-1.050,-3.103,24.197,100.948,10,140
87949,0.391,0.047,9.819,0.890,-1.284,1.371,24.194,100.953,10,140
87999,0.403,-0.324,9.874,0.707,2.374,-2.627,24.173,100.972,10,140
88049,0.250,-0.244,10.015,3.723,0.202,-1.019,24.148,100.946,10,140
88099,0.199,-0.287,9.829,0.088,0.734,0.070,24.118,100.957,10,140
88149,0.325,-0.261,9.778,0.503,0.145,-0.161,24.215,100.961,10,140
88199,0.260,-0.196,9.681,-0.220,0.730,1.302,24.186,100.949,10,140
88249,0.214,-0.169,9.683,0.216,0.058,-1.305,24.194,100.948,10,140
88299,0.366,-0.250,9.865,2.326,0.291,1.188,24.146,100.947,10,140
88349,0.079,-0.212,9.678,0.194,-3.006,-1.241,24.182,100.954,10,140
88399,0.105,-0.242,10.104,1.184,0.260,-4.025,24.132,100.955,10,140
88449,0.323,-0.142,9.919,0.167,1.274,-2.611,24.300,100.947,10,140
88499,0.221,-0.021,9.878,1.450,-0.888,0.435,24.212,100.939,10,140
88549,0.271,-0.223,9.775,-1.010,-1.831,0.651,24.190,100.961,10,140
88599,0.288,-0.272,9.641,0.142,-0.439,2.973,24.290,100.966,10,140
88649,0.191,-0.356,9.781,-1.297,2.101,0.186,24.158,100.950,10,140
88699,0.440,-0.304,9.864,-1.928,-0.290,-0.955,24.193,100.952,10,140
88749,0.433,-0.116,9.738,-1.930,-1.183,-0.615,24.167,100.943,10,140
88799,0.420,-0.088,9.776,-0.716,-0.337,-0.054,24.177,100.934,10,140
88849,0.245,-0.411,9.812,1.001,-1.550,0.252,24.148,100.943,10,140
88899,0.521,-0.093,9.863,-0.629,0.612,-0.273,24.200,100.941,10,140
88949,0.287,-0.241,9.644,2.490,1.207,-1.152,24.106,100.943,10,140
88999,0.198,-0.266,9.633,-1.211,0.099,0.612,24.081,100.950,10,140
89049,0.181,-0.316,9.770,-1.004,1.032,1.036,24.163,100.944,10,140
89099,0.501,0.020,9.852,-0.221,1.489,2.140,24.153,100.968,10,140
89149,0.276,-0.069,9.747,0.104,-0.666,0.043,24.229,100.941,10,140
89199,0.260,-0.133,9.753,3.011,-2.159,3.754,24.146,100.960,10,140
89249,0.482,-0.134,9.643,-0.491,0.106,0.842,24.227,100.961,10,140
89299,0.466,-0.307,9.922,-2.581,0.224,-1.584,24.091,100.959,10,140
89349,0.291,-0.081,9.622,-1.807,-0.145,-0.986,24.182,100.944,10,140
89399,0.255,-0.329,9.956,-0.472,-1.754,1.014,24.203,100.952,10,140
89449,0.320,-0.242,9.792,-3.291,-2.315,-1.828,24.193,100.962,10,140
89499,0.275,-0.227,9.938,-0.539,0.978,0.645,24.113,100.953,10,140
89549,0.318,-0.330,9.686,-1.896,2.046,3.149,24.214,100.966,10,140
89599,0.137,-0.031,10.038,2.412,-1.399,1.621,24.174,100.961,10,140
89649,0.219,-0.194,9.740,0.713,-0.148,1.664,24.220,100.954,10,140
89699,0.290,-0.231,9.808,1.125,0.198,0.438,24.178,100.949,10,140
89749,0.217,-0.416,9.874,0.841,-1.445,2.861,24.122,100.960,10,140
89799,0.324,-0.159,9.940,1.383,0.042,-1.577,24.119,100.952,10,140
89849,0.480,-0.093,9.803,0.500,1.030,2.577,24.142,100.957,10,140
89899,0.327,-0.285,9.688,1.904,0.501,-0.308,24.185,100.960,10,140
89949,0.306,-0.007,9.777,-1.166,-0.161,-1.397,24.163,100.962,10,140
89999,0.495,-0.121,9.830,-1.353,-1.493,0.561,24.189,100.944,10,140
90049,0.242,-0.012,9.924,0.088,0.350,1.919,24.198,100.952,10,140
90099,0.110,-0.394,9.583,-3.366,-0.013,0.502,24.137,100.954,10,140
90149,0.347,-0.205,9.634,2.169,2.068,-0.857,24.277,100.951,10,140
90199,0.203,-0.244,9.589,-0.517,-2.390,1.705,24.197,100.936,10,140
